ax,ay,az,gx,gy,gz,avm,pressure
1.6426,0.0991,-0.0166,32.439,16.28,-5.976,1.6456,100700.34
1.5054,0.0342,0.1616,7.744,-17.012,21.951,1.5144,100701.16
1.0928,-0.0879,0.0151,-28.841,-45.549,55.976,1.0964,100700.78
1.0508,-0.1587,0.3711,-31.098,-0.183,57.622,1.1256,100701.36
1.6841,-0.1182,0.3623,-29.451,39.39,16.098,1.7267,100700.93
1.2397,0.0898,0.1318,-31.341,10.366,-4.817,1.25,100700.59
0.5938,0.1201,0.1133,-44.573,17.927,-19.634,0.6163,100700.67
0.5151,0.1812,-0.0352,-52.744,36.159,-14.451,0.5472,100700.42
0.623,0.2197,-0.2471,-60.122,54.512,11.646,0.7053,100700.2
0.7783,0.1475,-0.2749,-54.878,83.537,19.878,0.8385,100701.38
1.0308,0.0698,-0.3379,-31.524,73.537,22.317,1.087,100702.0
1.1064,0.0923,-0.0146,20.183,59.146,28.293,1.1104,100701.73
1.1475,0.2437,0.2021,23.171,-6.585,37.927,1.1903,100701.52
1.479,0.1372,-0.0747,48.415,17.683,42.012,1.4872,100701.13
1.2607,0.334,1.1948,173.232,95.61,74.512,1.7688,100700.7
0.5679,0.2446,1.3945,113.537,39.268,59.329,1.5255,100700.74
1.0835,-0.0854,0.7378,9.634,-17.622,-4.512,1.3136,100700.65
0.7402,-0.0732,0.6069,-27.134,10.61,41.585,0.96,100700.72
0.0571,-0.1187,0.2769,-73.659,38.476,54.695,0.3066,100701.15
0.2725,-0.1284,0.0181,-95.244,-26.037,-7.866,0.3017,100701.09
0.7041,-0.0815,-0.1841,-89.024,-50.0,-28.049,0.7323,100701.78
0.9849,-0.0425,-0.1685,-57.5,-38.049,-29.451,1.0001,100701.69
1.5889,-0.062,0.0039,-28.354,-38.72,-29.695,1.5901,100700.64
1.7729,-0.0361,0.064,-2.805,-3.171,19.878,1.7745,100700.97
0.7251,-0.0391,-0.1265,-42.134,-12.988,19.573,0.7371,100700.17
0.1919,0.0073,-0.1489,-23.537,42.927,72.866,0.243,100699.75
0.0259,0.0005,0.126,-17.378,41.341,57.195,0.1286,100699.66
0.4053,-0.0234,0.2568,-39.512,0.305,-17.561,0.4804,100700.52
1.1343,-0.083,0.1528,-49.268,-34.268,-79.451,1.1475,100701.39
1.4194,-0.0063,0.4717,-5.976,-22.317,-75.183,1.4958,100701.66
1.6812,-0.0063,0.3799,12.256,-32.439,-48.841,1.7235,100701.76
1.3647,-0.2178,0.3359,64.878,25.732,27.256,1.4223,100701.36
0.7114,-0.0386,1.0615,103.354,50.427,50.793,1.2785,100701.41
1.1035,-0.0981,0.6807,28.659,-31.585,-22.134,1.3003,100700.08
1.3345,-0.1714,0.2222,-1.098,-33.171,-3.476,1.3637,100699.71
0.4263,-0.0786,0.1294,-1.463,20.976,74.207,0.4524,100699.8
0.106,-0.0327,0.1587,-18.415,14.878,55.122,0.1936,100699.98
0.3979,0.0166,0.04,-49.939,-36.037,-0.915,0.4003,100699.6
0.7803,-0.0249,-0.2715,-60.61,-57.622,-38.476,0.8265,100700.18
1.3755,-0.0771,-0.0078,-17.012,-51.341,-49.451,1.3777,100700.37
1.5034,-0.001,0.3989,-3.049,-28.171,-16.463,1.5554,100700.73
1.4404,-0.083,0.0151,-27.195,-37.805,4.634,1.4429,100700.03
1.1382,-0.3813,0.2114,30.854,26.707,19.207,1.2188,100699.39
1.27,-0.3218,1.3008,67.744,30.793,-28.841,1.8462,100699.8
1.1841,-0.2007,0.5181,-43.841,-29.146,-45.915,1.3079,100699.95
0.8472,-0.1904,-0.2192,-66.22,-10.427,-14.634,0.8956,100699.49
0.1768,-0.0557,0.1187,-57.988,50.488,45.427,0.22,100699.26
0.502,-0.2144,0.0039,-83.293,13.049,-9.634,0.5458,100699.83
1.0366,-0.2847,0.1826,-76.159,2.988,-34.268,1.0904,100699.31
0.9229,-0.2715,0.0317,-75.61,16.89,-13.415,0.9625,100699.3
1.0552,-0.2544,0.1567,-36.829,-18.902,-31.951,1.0967,100698.41
1.52,-0.4272,0.3984,-3.293,-30.427,-32.378,1.6284,100698.23
1.0903,-0.4019,0.7563,13.354,15.976,27.927,1.3865,100698.58
0.8379,-0.3516,0.7256,-21.707,26.098,7.927,1.1628,100698.48
1.2593,-0.3555,0.4023,-34.268,-7.439,-39.207,1.3689,100698.91
1.0796,-0.1528,0.5605,-7.317,7.683,-30.976,1.226,100698.44
0.9531,-0.0742,0.3555,-30.122,-14.451,-36.951,1.02,100698.49
0.7378,-0.1689,-0.02,-47.744,0.549,-7.683,0.7572,100699.26
0.4414,-0.2974,-0.0083,-38.415,44.634,3.902,0.5323,100699.57
0.6211,-0.4932,0.0459,-55.427,12.073,-20.305,0.7944,100700.2
0.8364,-0.4902,0.2393,-86.098,-10.305,-19.512,0.9986,100700.06
0.9946,-0.3286,0.5889,-137.805,-35.976,-8.537,1.2017,100699.36
1.0693,-0.4746,0.1211,-214.512,-32.805,21.524,1.1762,100699.23
0.6021,-1.2334,-0.0879,-152.256,127.622,23.841,1.3753,100699.13
1.5513,-0.8618,2.0654,-24.024,79.451,-87.073,2.7231,100699.16
1.5767,-0.2358,1.5747,-158.476,-15.61,-88.72,2.2408,100699.32
0.8691,-0.0981,0.5107,-264.451,9.329,-38.476,1.0129,100699.56
0.3276,0.2822,0.0356,-297.5,0.427,-27.683,0.4339,100699.84
0.5391,0.3174,-0.2329,-280.427,-44.512,-52.256,0.6675,100700.71
0.3936,0.1284,-0.3281,-217.012,-16.28,-42.866,0.5282,100700.27
0.5796,-0.1216,-0.3184,-121.707,-37.012,-73.354,0.6724,100699.91
1.2861,-0.1045,0.2046,-10.671,-81.159,-76.707,1.3065,100699.67
1.1021,-0.0103,0.6406,34.512,-14.268,10.671,1.2748,100699.98
0.5747,-0.0391,0.5601,-1.646,32.683,56.829,0.8034,100699.59
0.6621,-0.2896,0.3291,-1.098,51.341,1.463,0.7941,100699.41
1.2661,-0.3052,0.0723,-29.268,22.195,-47.988,1.3044,100699.18
1.4746,-0.6943,-0.5913,5.671,81.768,-29.451,1.7338,100699.21
1.5708,-0.3491,0.7534,100.061,85.976,-12.866,1.7768,100698.77
1.3159,-0.2983,0.3027,-23.659,34.024,-8.902,1.3829,100699.31
0.8506,-0.4048,-0.2866,-76.646,22.561,5.183,0.9846,100699.55
0.541,-0.2949,0.1099,-70.671,5.915,1.89,0.6259,100698.77
0.5522,-0.3433,0.0786,-114.146,-22.378,-32.561,0.655,100699.19
0.8979,-0.3252,0.1343,-129.817,-45.488,-54.939,0.9644,100699.25
0.9136,-0.0776,0.4536,-151.22,-68.902,-32.805,1.0229,100699.18
0.4849,-0.519,-0.3687,-184.817,-17.378,-12.561,0.8003,100699.87
1.2437,-0.917,0.4927,-68.232,27.256,-69.39,1.6218,100700.02
1.2764,-0.3857,1.2568,-82.988,28.354,-53.11,1.8324,100700.62
0.9214,-0.1934,0.1694,-181.707,14.573,-63.049,0.9566,100700.21
1.3823,-0.0591,0.0117,-140.671,32.073,-61.585,1.3836,100700.14
0.8555,0.0679,0.0166,-109.573,93.902,5.122,0.8583,100700.7
0.5322,-0.02,-0.0757,-80.488,55.366,-1.463,0.538,100701.38
0.8555,0.0801,0.353,-40.488,11.524,-29.329,0.9289,100701.62
0.8003,-0.022,0.146,-31.22,24.39,-44.024,0.8138,100702.16
1.6943,-0.0054,0.7988,36.463,-2.378,-92.439,1.8732,100701.85
1.6777,0.2002,0.5894,-32.5,-31.341,-51.463,1.7895,100701.85
0.7852,-0.0815,-0.6147,-98.476,-24.085,18.171,1.0005,100701.57
0.5269,-0.0825,-0.1597,-20.305,17.866,27.012,0.5567,100700.76
0.7407,-0.188,0.3105,-17.805,-10.122,-2.317,0.8249,100700.91
1.2197,-0.3198,0.3706,-57.744,-36.098,-22.561,1.3143,100701.39
1.1548,-0.1343,0.2441,-102.561,-66.28,-13.537,1.1879,100701.42
1.209,-0.1968,-0.4663,-124.695,-99.817,5.488,1.3107,100701.56
1.1724,-0.4429,-0.3491,-32.683,26.341,55.122,1.3009,100702.39
0.7148,-0.4517,0.8105,70.122,123.415,56.159,1.1713,100702.29
1.0127,-0.1587,1.335,21.768,62.5,-41.646,1.6831,100702.91
1.3354,-0.1074,0.5479,-72.744,5.671,-74.146,1.4474,100702.91
0.8716,-0.0381,0.2632,-79.878,58.049,-12.134,0.9112,100702.16
0.396,0.082,0.0942,-82.805,56.22,12.744,0.4152,100701.13
0.6025,0.0688,-0.2954,-71.463,-28.476,-6.768,0.6746,100701.22
0.7344,0.1777,0.0459,-1.341,-48.598,2.805,0.757,100701.06
1.1836,-0.0488,-0.0469,59.207,-33.963,2.866,1.1855,100700.2
1.5059,-0.0166,0.8193,166.524,22.866,36.646,1.7144,100700.39
0.8687,-0.0063,1.2129,116.402,49.878,63.963,1.4919,100700.91
0.5635,-0.2046,0.1763,-0.976,-31.89,44.268,0.6248,100701.05
0.4287,-0.2793,-0.061,-3.902,4.207,55.854,0.5153,100700.91
0.2661,-0.2354,0.248,2.805,35.061,49.451,0.4333,100701.43
0.7559,-0.1929,0.4639,-28.232,-42.073,-47.439,0.9076,100701.53
2.2617,-0.2324,0.2583,-52.256,-139.268,-94.756,2.2883,100701.99
1.5386,-0.1875,0.2666,-28.354,2.195,40.305,1.5727,100701.72
0.6294,-0.4009,0.314,12.683,102.683,48.72,0.8096,100702.12
0.8936,-0.209,1.1646,46.341,52.195,-48.476,1.4827,100702.03
0.8599,-0.1548,-0.2588,-130.793,-26.951,-18.11,0.9112,100702.63
0.2935,0.0391,-0.1318,-101.524,21.402,40.488,0.3241,100701.96
0.2529,0.0425,0.0874,-76.28,2.622,4.878,0.271,100701.64
0.7188,0.0332,0.2256,-50.488,-47.927,-41.646,0.7541,100702.15
0.8906,0.1699,0.4019,-5.427,-8.72,-51.463,0.9918,100701.8
1.5156,0.2144,0.4946,44.817,-4.878,-66.646,1.6086,100701.42
1.6548,0.187,0.4155,111.89,48.354,6.829,1.7164,100701.75
0.9194,0.1943,0.9766,147.317,146.037,80.183,1.3553,100702.32
0.917,0.0234,0.3701,57.5,50.061,53.78,0.9891,100702.62
0.731,-0.1509,-0.1436,52.378,24.695,65.915,0.76,100703.08
0.4092,-0.0894,0.8105,99.878,23.963,33.537,0.9124,100703.3
1.397,-0.0962,0.5933,28.293,-87.988,-75.122,1.5208,100703.59
1.8643,-0.2017,0.1025,25.0,-63.963,-33.476,1.8779,100703.46
0.9009,-0.1157,0.5015,45.61,30.061,69.634,1.0375,100702.74
0.5039,-0.2871,0.002,-45.549,-29.268,50.549,0.58,100702.59
0.7368,-0.251,-0.2104,-72.256,-96.951,9.695,0.8063,100702.33
0.8799,-0.0195,0.3535,-30.122,-80.976,4.573,0.9484,100701.66
1.0718,-0.1499,0.7715,-21.829,-48.049,-8.963,1.329,100702.26
0.9497,-0.0571,0.5005,-37.073,-4.512,-7.5,1.075,100702.09
1.1685,-0.0757,0.6743,7.5,33.78,-22.317,1.3512,100702.09
1.0396,-0.0869,0.645,11.951,70.488,5.61,1.2265,100702.23
0.5049,-0.0996,0.1108,-1.28,87.805,40.793,0.5264,100701.37
0.4834,-0.0552,0.3369,32.134,75.366,39.329,0.5918,100701.18
0.5381,-0.0195,0.4888,13.659,44.085,33.049,0.7272,100700.06
0.5186,0.0293,0.2822,-16.768,-22.439,14.085,0.5911,100700.21
1.1602,-0.0439,-0.0747,-1.098,-63.659,-16.098,1.1634,100700.41
1.6182,-0.2378,0.561,117.927,10.915,19.024,1.7291,100699.91
1.0503,-0.1143,1.6748,160.854,47.439,70.854,1.9802,100700.37
0.6323,-0.3345,0.6558,38.415,-4.329,41.098,0.9704,100699.7
0.6035,-0.3638,0.375,18.78,-13.415,13.72,0.7982,100700.04
0.3877,-0.2134,0.3594,-26.951,-19.085,0.122,0.5701,100699.92
0.6035,-0.2627,-0.2012,-79.695,-39.939,-29.268,0.6883,100700.42
0.8164,-0.0903,0.2222,-50.061,-37.317,-39.573,0.8509,100700.93
1.3262,-0.1162,0.252,-75.976,-68.537,-62.134,1.3549,100700.84
1.4336,-0.1372,0.2666,-79.634,-98.11,-22.744,1.4646,100701.5
0.9272,-0.231,-0.062,-60.183,-13.415,35.915,0.9576,100701.79
0.8374,-0.6094,0.7944,69.634,84.695,-8.354,1.3053,100701.89
1.6318,-0.3521,1.8467,76.098,12.5,-79.085,2.4894,100701.21
0.8369,-0.353,0.3945,-87.134,12.561,-29.39,0.9903,100701.23
0.1636,-0.2036,-0.3203,-111.768,7.012,-7.378,0.4133,100701.49
0.2949,-0.127,0.0518,-84.207,13.537,-25.671,0.3252,100701.72
0.5415,-0.1631,0.3633,-91.707,3.232,-45.61,0.6722,100701.49
0.7192,-0.1392,0.5176,-112.561,-5.183,-61.707,0.897,100701.98
0.7563,-0.0332,0.2637,-135.366,-13.841,-82.805,0.8017,100701.97
1.3164,-0.0835,-0.1987,-94.756,-46.037,-99.085,1.3339,100701.31
1.5879,-0.3896,0.6372,42.378,52.073,-39.634,1.7548,100700.96
1.1021,-0.3701,0.2158,-92.317,9.268,-36.159,1.1824,100701.34
0.9546,-0.4072,0.2148,-69.268,27.866,-12.5,1.0598,100701.61
0.4688,-0.3843,0.3467,-99.878,36.28,-0.183,0.6983,100702.3
0.4858,-0.5059,0.1108,-150.122,-3.902,-35.976,0.7101,100702.33
0.5635,-0.3481,0.521,-167.622,-44.634,-67.561,0.8427,100701.99
0.8823,-0.3052,0.6973,-226.28,-78.902,-88.293,1.1653,100701.84
0.8101,-0.4395,0.3965,-263.232,-51.646,-69.878,1.0033,100700.92
0.8818,-0.6084,0.8857,-212.927,-2.317,-86.402,1.3901,100700.05
1.2534,-0.4053,1.1055,-213.293,0.549,-127.073,1.7197,100700.41
1.6089,-0.3281,0.4766,-211.159,6.89,-132.256,1.7098,100700.17
1.2617,-0.2549,0.4253,-134.085,73.598,-63.293,1.3556,100700.37
0.6069,-0.1011,0.4375,-91.585,131.829,-19.39,0.755,100700.98
0.7378,-0.0894,0.3398,-80.122,88.415,-45.732,0.8172,100701.31
0.7026,0.0098,0.4746,-87.012,39.573,-44.573,0.848,100701.18
0.5391,0.1221,0.2939,-135.183,-10.915,-43.72,0.626,100700.59
0.7188,0.1802,-0.0435,-151.463,-61.585,-45.122,0.7423,100699.59
0.7446,-0.1279,-0.0083,-86.22,-33.476,-42.5,0.7556,100699.54
1.2734,-0.417,0.4966,12.744,-25.549,-46.463,1.429,100700.23
1.0527,-0.2715,1.8145,63.354,41.707,-14.146,2.1152,100701.52
0.7295,-0.0776,1.1836,-89.512,11.524,-43.415,1.3925,100701.7
0.9126,-0.2217,-0.1226,-167.256,-31.646,-77.378,0.9471,100701.38
1.04,-0.2358,-0.0527,-105.976,-5.915,-36.159,1.0677,100701.73
0.6885,-0.187,0.2886,-80.793,26.22,2.561,0.7696,100701.91
0.9199,-0.2402,0.3364,-100.427,-30.61,-33.354,1.0085,100701.83
1.3398,-0.2334,0.2271,-117.378,-67.073,-40.366,1.3788,100701.98
1.272,-0.2397,0.0786,-108.537,-70.793,-3.049,1.2968,100702.24
1.0146,-0.2881,0.0723,-89.512,-37.866,27.073,1.0572,100701.69
0.7373,-0.6987,0.3237,-46.098,41.037,26.341,1.0661,100701.03
0.4961,-0.5908,1.2168,-15.915,51.159,-12.073,1.4408,100701.02
0.5347,-0.2954,0.7246,-95.732,-1.402,-100.0,0.9477,100701.18
1.1509,-0.2041,0.2148,-113.293,-45.0,-135.854,1.1884,100701.87
1.0957,-0.0825,0.2661,-93.049,21.037,-47.012,1.1306,100702.05
0.5776,-0.0952,-0.1006,-92.256,74.268,27.195,0.594,100701.34
0.4727,-0.1313,0.0537,-47.073,72.561,18.598,0.4935,100701.91
0.7393,-0.2256,0.5664,-13.232,59.268,-21.098,0.9582,100701.84
0.9722,-0.2085,0.7495,-12.988,25.915,-55.0,1.2451,100701.44
1.6567,-0.1577,0.6343,4.756,-33.232,-76.89,1.781,100702.6
1.5259,-0.1113,0.7231,63.841,24.451,-9.085,1.6922,100702.12
0.7808,0.0166,0.9946,97.805,71.707,30.671,1.2646,100701.41
1.0449,-0.0342,0.6396,51.768,-16.89,-1.402,1.2256,100701.12
0.9419,-0.1099,0.0762,12.866,-25.0,52.439,0.9513,100700.88
0.1533,-0.0703,-0.0239,13.049,32.5,123.537,0.1704,100700.8
0.0532,-0.043,0.2461,-0.488,15.122,89.085,0.2554,100701.02
0.3755,-0.1357,0.0869,-34.451,-34.024,15.793,0.4086,100700.92
1.1978,-0.1392,0.2822,3.902,-91.524,-44.939,1.2384,100700.84
1.7798,-0.105,0.7734,34.695,-84.634,-23.476,1.9434,100701.02
1.3931,-0.21,0.6226,7.988,-26.646,39.756,1.5402,100701.28
0.8789,-0.3052,0.4756,-3.293,-1.402,43.598,1.0449,100701.35
0.8179,-0.3291,0.6475,-5.732,-5.122,-15.915,1.0938,100700.46
1.0156,-0.2817,0.6812,-20.854,-30.427,-62.927,1.2549,100700.6
0.7559,-0.2114,0.3853,-49.756,-16.707,-48.537,0.8743,100700.66
0.5449,-0.1221,0.1763,-64.756,-5.915,-27.073,0.5856,100700.19
0.6108,-0.0229,0.1323,-71.951,6.341,-5.0,0.6254,100700.07
0.4893,0.0532,0.1045,-68.476,45.488,27.134,0.5031,100699.89
0.4395,0.0737,0.4712,-41.646,77.317,6.341,0.6485,100700.82
1.1582,-0.042,0.5635,-42.927,24.756,-65.183,1.2887,100700.77
1.6323,0.0098,0.5547,-19.695,-12.5,-61.402,1.724,100700.11
1.5547,-0.1294,0.2881,31.037,-3.537,-3.171,1.5864,100700.23
0.9819,-0.1777,0.7969,133.049,41.707,63.476,1.277,100699.21
0.4888,0.1499,1.4761,123.476,12.256,44.207,1.5621,100698.91
0.8369,-0.0254,0.3828,7.012,-70.427,-23.171,0.9207,100699.39
0.9746,-0.0796,0.0337,10.366,-31.037,25.915,0.9784,100699.26
0.3472,-0.0054,0.1445,15.244,49.878,105.854,0.3761,100698.91
0.2393,-0.0649,0.082,-15.244,35.061,92.439,0.2611,100699.13
0.5,-0.1611,0.0767,-29.085,7.073,50.915,0.5309,100699.52
0.8564,-0.3247,0.2817,-19.695,-13.476,3.354,0.9583,100699.8
1.5664,-0.3726,0.5444,-0.976,-60.671,-16.768,1.6997,100700.6
1.3281,-0.293,0.8174,2.988,-17.378,27.927,1.5868,100700.77
1.0449,-0.3481,0.5063,-14.573,8.598,16.28,1.2122,100700.37
0.8188,-0.3931,0.6348,18.354,41.646,-4.39,1.1081,100700.92
0.5376,-0.3096,0.9448,15.305,45.793,-31.159,1.1303,100700.97
0.7207,-0.2876,0.6104,-44.207,3.598,-75.976,0.9872,100701.37
0.8994,-0.1685,0.4194,-73.72,-6.89,-66.951,1.0066,100701.44
0.5625,-0.0171,0.209,-97.744,26.829,-15.915,0.6003,100700.67
0.3228,0.0283,-0.0332,-89.329,24.146,-6.463,0.3257,100700.94
0.7881,-0.0054,0.4121,-31.707,17.561,-37.561,0.8893,100700.15
0.8999,-0.0513,0.6362,-5.183,15.122,-37.439,1.1033,100700.53
1.3218,0.0708,0.4824,19.39,-60.244,-50.61,1.4088,100700.1
0.6855,0.2559,1.6255,194.817,108.902,124.39,1.7826,100700.38
0.7827,0.0762,0.8989,84.146,-4.39,40.549,1.1944,100701.08
1.2461,-0.1494,0.0815,51.768,-48.232,32.805,1.2577,100701.12
0.3267,-0.0894,0.3081,68.476,46.098,120.915,0.4578,100700.16
-0.1235,-0.2007,0.2354,-1.768,22.439,81.159,0.3331,100699.48
0.1802,-0.3608,-0.1997,-59.146,-58.415,-4.817,0.4501,100700.16
0.6343,-0.2881,0.3149,-32.927,-73.293,-70.122,0.7645,100699.93
1.9517,-0.3481,0.4756,-52.805,-130.61,-99.451,2.0387,100699.98
1.6538,-0.3584,0.2607,-38.841,-49.817,6.707,1.7122,100700.18
1.5557,-0.2017,0.729,19.573,3.415,45.671,1.7298,100700.3
0.9722,-0.3467,0.9653,30.0,71.707,70.732,1.4132,100700.66
0.3579,-0.3188,1.0356,-5.915,55.427,17.683,1.1412,100700.56
0.6938,-0.2402,0.3823,-81.89,-15.366,-64.085,0.8278,100700.13
0.6211,-0.2021,-0.105,-100.732,-1.585,-45.915,0.6615,100699.9
0.5083,0.0122,0.0894,-69.634,21.585,-20.488,0.5162,100699.64
0.6465,-0.0293,0.3618,-36.768,39.329,-23.72,0.7414,100700.05
0.7192,-0.0137,0.4912,-12.5,40.427,-26.22,0.8711,100699.98
1.1396,0.0068,0.4146,27.683,-20.366,-59.573,1.2127,100699.81
2.0098,-0.0469,0.4966,123.049,-40.61,-18.841,2.0707,100700.14
0.9673,0.1499,1.3145,206.585,100.305,124.634,1.6389,100699.81
0.5801,-0.0659,1.0957,153.598,53.963,80.793,1.2415,100700.53
1.1733,-0.1943,0.8589,98.537,-25.305,25.305,1.467,100700.95
0.415,-0.2651,0.519,19.085,27.805,70.61,0.7155,100701.38
-0.0156,-0.4634,-0.042,-45.183,16.341,37.073,0.4655,100701.33
0.5596,-0.3369,0.5371,-89.085,-62.744,-89.634,0.8456,100700.24
1.2461,-0.3696,0.1787,-145.488,-87.622,-109.817,1.312,100700.23
1.376,-0.3916,0.4165,-111.707,-66.341,-56.89,1.49,100700.38
1.3179,-0.4116,0.7192,-61.768,-24.024,-12.927,1.5568,100699.75
1.0513,-0.6206,0.9863,-19.451,50.61,8.78,1.5694,100699.88
0.5444,-0.6167,1.126,-23.354,90.488,-6.89,1.3945,100699.84
0.605,-0.4258,0.9321,-67.134,37.012,-79.878,1.19,100699.58
0.8228,-0.0977,0.5894,-123.11,-11.341,-107.5,1.0168,100700.37
0.6338,0.0005,0.0508,-158.78,-3.049,-77.439,0.6358,100700.96
0.6021,-0.0103,0.0542,-130.671,14.39,-54.329,0.6046,100700.44
0.6128,-0.0547,0.3145,-105.0,32.5,-42.378,0.6909,100700.17
0.46,-0.1118,0.248,-100.061,12.561,-46.463,0.5344,100700.57
0.8794,-0.0396,0.354,-73.902,-70.0,-91.159,0.9488,100699.91
1.7476,-0.3345,-0.0171,-27.805,-81.341,-60.305,1.7794,100699.87
0.9146,-0.2202,0.9854,105.366,61.829,99.695,1.3623,100699.25
0.3159,-0.1689,1.4751,63.78,75.122,86.037,1.518,100699.5
0.9058,-0.4155,0.3076,-35.183,-9.634,9.268,1.0429,100699.7
0.4966,-0.5513,0.3325,1.402,57.317,22.012,0.8131,100700.45
0.4053,-0.6133,0.6338,-12.927,50.0,-33.78,0.9706,100700.16
0.689,-0.6689,0.4702,-69.634,16.707,-95.427,1.0692,100700.93
0.7754,-0.3569,0.6089,-109.512,-0.61,-113.841,1.0485,100701.13
1.02,-0.1538,0.3252,-179.451,-41.402,-132.378,1.0816,100702.04
1.0811,-0.252,0.0562,-198.659,-57.256,-114.146,1.1114,100701.12
1.0913,-0.4575,0.1426,-159.207,-39.695,-84.573,1.1919,100701.52
1.3208,-0.7983,0.917,-72.927,-4.512,-75.183,1.7952,100700.37
1.1157,-0.7114,1.5747,-47.256,38.598,-32.927,2.0569,100701.1
-0.0293,-0.4966,1.4072,-99.146,100.61,-47.012,1.4926,100700.43
0.5952,-0.1738,1.2788,-159.512,-12.683,-179.207,1.4212,100700.41
1.1787,0.043,0.6895,-235.366,-68.78,-175.915,1.3662,100700.27
0.6841,-0.0039,0.1577,-236.951,-5.061,-81.402,0.702,100700.3
0.4277,0.043,0.2378,-186.28,35.793,-46.524,0.4913,100700.44
0.437,0.0146,0.1826,-160.122,16.037,-48.963,0.4739,100700.31
0.771,-0.0552,0.1401,-122.866,-17.317,-52.988,0.7856,100700.43
1.2515,-0.1655,0.124,-72.134,-8.293,-31.707,1.2684,100700.41
1.0127,-0.2876,0.7349,17.012,49.39,41.28,1.2839,100701.0
0.6494,-0.061,1.2686,1.829,30.671,28.78,1.4264,100701.31
1.3247,-0.3594,0.3916,-62.561,-35.305,-31.646,1.4274,100701.55
0.8838,-0.4131,0.355,-19.085,43.963,26.341,1.0381,100701.49
0.2783,-0.4819,0.5225,-17.134,89.512,12.744,0.7633,100700.85
0.7549,-0.4102,0.5811,-53.049,-8.293,-75.671,1.0372,100700.62
0.8877,-0.2319,0.3911,-97.378,-26.037,-76.89,0.9974,100700.57
0.5,-0.1572,0.3174,-114.39,9.512,-55.549,0.6127,100700.28
0.7017,-0.2046,0.3301,-122.988,-26.524,-92.073,0.802,100700.88
0.9307,-0.3311,0.4038,-121.402,-36.159,-102.805,1.0671,100701.23
1.3535,-0.3628,0.4736,-103.476,-60.366,-108.537,1.4792,100700.53
1.7861,-0.4658,0.6113,-61.463,-40.122,-66.463,1.9445,100700.51
1.0923,-0.3677,1.0991,-38.78,57.378,16.037,1.5926,100700.99
0.3789,-0.2681,0.7119,-104.024,59.085,1.829,0.8499,100700.99
0.6196,-0.2466,0.085,-136.28,-10.244,-61.159,0.6723,100701.45
0.6611,-0.0957,0.1943,-111.28,-13.11,-52.378,0.6957,100701.09
0.5249,0.0073,0.2339,-109.695,1.707,-27.317,0.5747,100700.91
0.4717,-0.0698,0.2222,-91.159,8.72,-31.28,0.526,100700.19
0.8218,-0.2529,0.499,-49.695,13.902,-46.89,0.9941,100700.63
0.7559,-0.2402,0.6216,-28.11,24.085,-48.598,1.0077,100701.57
1.6362,-0.1929,0.4956,4.207,-53.11,-85.854,1.7205,100701.41
1.7354,-0.0215,0.7676,73.049,-3.72,-12.744,1.8977,100700.66
1.0674,0.0552,0.8413,84.024,46.768,45.244,1.3602,100700.59
1.2314,-0.0938,0.4585,52.805,8.232,66.159,1.3174,100701.04
0.1929,-0.0586,0.252,21.951,50.366,146.524,0.3227,100700.51
-0.2104,-0.083,0.0879,-25.61,9.573,93.598,0.2427,100701.21
0.4775,-0.0049,0.0767,-59.634,-67.317,-6.951,0.4837,100700.87
0.4644,-0.0459,-0.1973,-68.598,-44.695,-45.183,0.5066,100701.44
1.5996,-0.0098,0.0356,-26.28,-90.671,-120.915,1.6,100701.76
2.1768,-0.1553,0.3218,13.841,-52.622,-53.171,2.2059,100701.77
0.9429,-0.1758,0.54,30.305,21.037,47.927,1.1007,100701.92
1.168,-0.4272,0.627,39.451,-1.707,-5.305,1.3928,100701.89
0.9756,-0.3145,1.0972,55.732,28.902,18.78,1.5015,100702.2
0.3452,-0.186,0.7124,-10.671,51.89,18.354,0.8132,100701.97
0.6484,-0.1304,0.1401,-60.0,15.61,-16.89,0.6761,100702.4
0.3311,0.0454,0.0225,-52.866,54.268,19.573,0.3349,100703.18
0.5225,-0.0977,0.2085,-21.89,44.268,-13.78,0.5709,100702.68
1.1377,-0.1978,0.4165,-0.549,25.976,-32.744,1.2276,100702.08
0.6982,-0.2017,0.5791,11.89,47.927,-6.829,0.9293,100703.06
1.2144,-0.0376,0.6187,4.024,-51.463,-58.049,1.3634,100703.31
1.6973,-0.251,0.3193,33.72,-49.695,-10.366,1.7452,100702.65
0.5342,0.0552,1.4814,106.037,52.134,81.524,1.5758,100702.86
0.9463,-0.0059,0.7915,-7.866,-47.805,-14.451,1.2337,100703.05
1.4429,-0.1602,0.2021,-14.39,-65.183,-1.098,1.4657,100702.45
0.3799,0.0244,0.2578,4.024,45.488,100.305,0.4598,100702.2
0.1006,0.001,-0.0786,-33.354,17.439,70.976,0.1277,100701.56
0.6143,0.0488,-0.0186,-26.341,-47.195,2.256,0.6165,100701.78
1.4863,-0.0698,0.3335,-4.024,-71.829,-30.976,1.5249,100702.55
1.356,-0.0093,0.627,22.866,-22.805,14.939,1.4939,100702.76
1.2109,-0.1748,0.5947,25.122,-2.073,17.195,1.3604,100703.01
0.9683,-0.3506,0.6953,54.512,36.037,26.89,1.2425,100703.59
0.6719,-0.3086,0.9868,60.488,40.122,9.39,1.2331,100704.03
0.9761,-0.2998,0.5,2.805,7.073,-23.476,1.1369,100703.02
0.7275,-0.1729,-0.0361,-17.744,22.988,25.122,0.7487,100702.97
0.0869,-0.0059,0.0273,4.146,59.451,62.805,0.0913,100701.35
0.3394,-0.0645,0.3091,16.402,31.646,-1.159,0.4635,100701.64
1.0283,-0.208,0.4722,16.768,-7.073,-58.902,1.1505,100702.32
1.3345,-0.1587,0.5049,8.232,-6.341,-49.634,1.4356,100701.87
1.5039,-0.1719,0.1279,21.341,-36.707,-28.598,1.5191,100702.85
1.5176,-0.1475,0.6831,112.012,-25.0,39.085,1.6708,100702.23
0.5024,0.0591,1.4062,112.073,40.427,89.939,1.4945,100702.65
0.937,-0.2485,0.5308,4.939,-32.012,7.256,1.1052,100701.55
0.8291,-0.2007,0.459,1.098,-12.622,36.402,0.9687,100701.34
0.0732,-0.1201,0.4404,-39.939,26.585,53.72,0.4624,100701.23
0.3794,-0.124,0.0293,-88.476,-21.646,-5.549,0.4002,100700.31
0.5615,-0.0781,0.0776,-70.549,-16.037,-38.598,0.5722,100700.08
1.293,-0.0742,0.1484,-55.427,-67.073,-80.305,1.3036,100700.27
1.6431,-0.1909,0.1528,-25.61,-68.415,-29.573,1.6612,100700.4
1.0952,-0.1001,0.6177,4.695,-22.683,37.805,1.2614,100701.47
0.9321,-0.2456,0.4985,-4.695,0.793,20.61,1.0852,100701.3
1.208,-0.4009,0.7505,33.415,9.146,-8.659,1.4776,100701.16
0.8428,-0.3262,0.9014,29.024,34.756,12.622,1.2764,100700.95
0.3784,-0.2134,0.4062,-27.256,28.293,5.366,0.5948,100700.88
0.5288,-0.1387,-0.1211,-51.098,4.878,-21.402,0.5599,100700.23
0.7124,-0.0679,0.1328,-16.037,29.695,-10.671,0.7278,100700.92
0.6509,-0.0625,0.3042,-6.037,45.122,-5.183,0.7212,100700.35
0.8071,-0.1782,0.2388,-7.378,21.524,-38.171,0.8604,100700.66
1.3374,-0.1963,0.3154,-2.439,-14.146,-57.927,1.388,100701.25
1.4199,-0.2168,0.0469,16.707,-25.793,-22.439,1.4371,100700.81
1.353,-0.3398,0.4907,92.195,-1.402,27.988,1.4788,100700.84
0.8335,-0.2495,1.2456,102.134,32.195,62.622,1.5194,100700.6
0.7173,-0.29,0.7432,19.146,-0.976,16.768,1.0728,100700.42
0.9424,-0.2827,0.6328,0.122,-2.012,5.061,1.1698,100700.87
0.1426,-0.1704,0.627,-42.622,38.049,25.0,0.6652,100700.59
0.3809,-0.2432,0.1406,-95.366,-15.183,-42.439,0.4732,100700.51
0.7295,-0.2949,0.2524,-82.195,3.72,-51.037,0.8264,100700.45
0.4629,-0.2681,0.3696,-93.841,20.671,-46.159,0.6502,100699.67
0.7656,-0.292,0.2427,-129.512,-38.659,-84.756,0.8546,100699.35
1.0889,-0.2383,0.5142,-136.707,-57.195,-97.744,1.2275,100699.46
1.2744,-0.2656,0.29,-139.329,-70.549,-90.122,1.3337,100699.67
1.4956,-0.502,0.5615,-70.305,-28.476,-52.866,1.6745,100699.49
0.937,-0.3105,0.8628,-49.939,59.329,8.11,1.311,100699.95
0.8027,-0.3989,0.3086,-81.707,76.402,-29.939,0.948,100699.8
1.3013,-0.3716,0.4316,-45.061,43.598,-68.841,1.4205,100698.97
0.9331,-0.1714,0.5449,-52.683,55.793,-38.293,1.0941,100698.74
0.6284,-0.1875,0.0801,-83.049,24.024,-36.159,0.6607,100699.69
0.5791,-0.1636,0.1978,-62.805,22.622,-39.207,0.6334,100699.16
0.5229,-0.2368,0.2568,-70.61,34.817,-47.744,0.6289,100699.77
0.7231,-0.3032,0.4033,-80.366,-23.963,-75.61,0.8818,100698.88
1.0337,-0.0923,0.5552,-113.354,-101.646,-88.659,1.177,100699.44
1.3418,-0.6899,0.127,-83.598,-44.085,-38.354,1.5141,100700.35
0.4775,-0.3496,1.9985,11.768,44.024,32.317,2.0843,100699.95
0.728,-0.397,0.8135,-152.805,-20.976,-51.951,1.1616,100700.48
1.0327,-0.6709,0.2983,-125.976,4.512,-61.829,1.2671,100700.8
0.6772,-0.4146,1.3325,-64.512,83.415,-52.561,1.5512,100701.62
0.8716,-0.3784,0.8438,-162.927,34.756,-115.61,1.2707,100701.52
0.9556,-0.2632,0.2476,-206.402,-23.11,-122.744,1.0216,100701.19
0.8389,-0.1748,0.2393,-195.488,-12.012,-83.902,0.8897,100700.97
0.5957,-0.2397,0.3784,-185.854,16.829,-51.707,0.7453,100701.02
0.6045,-0.1528,0.542,-190.732,6.341,-56.951,0.8262,100700.59
0.7485,-0.1006,0.4072,-204.634,4.329,-69.146,0.8581,100699.78
1.0977,-0.3105,0.4541,-154.878,8.049,-86.098,1.2278,100699.52
1.3838,-0.3276,0.9287,-87.195,17.988,-62.256,1.6984,100699.45
0.7793,-0.2964,0.9185,-90.122,64.634,-17.012,1.2404,100700.24
0.5405,-0.2227,0.6216,-124.329,36.524,-42.195,0.8533,100700.35
1.0117,-0.1924,0.3506,-63.049,37.622,-54.024,1.0879,100700.3
1.0239,-0.1943,0.5283,-20.61,45.488,-17.195,1.1685,100700.65
0.5132,-0.0962,0.7275,3.78,50.61,5.0,0.8955,100700.55
0.6602,-0.1016,0.5132,10.732,-33.963,-40.915,0.8423,100700.14
1.2334,-0.1245,0.7593,66.341,-23.78,-41.402,1.4537,100700.2
0.9697,-0.0952,1.1943,74.573,51.768,11.098,1.5414,100700.09
0.6157,-0.1567,0.7212,-2.988,23.902,19.085,0.9611,100700.77
0.3706,-0.1304,0.4019,-50.183,1.341,8.537,0.562,100701.39
0.231,-0.0684,0.2734,-79.817,-0.976,-19.39,0.3644,100701.44
0.4541,-0.1104,0.2051,-83.598,-20.122,-69.878,0.5103,100701.02
1.229,-0.1162,0.5146,-60.976,-52.805,-124.878,1.3375,100700.45
1.8408,-0.1035,0.4355,-70.305,-87.256,-98.11,1.8945,100700.25
1.4541,-0.0801,0.3457,-64.329,-51.28,-11.22,1.4968,100699.52
0.9248,-0.1743,0.3428,-31.463,-21.098,34.634,1.0016,100698.95
0.6108,-0.2764,0.9336,12.256,10.305,20.732,1.1494,100698.75
0.6172,-0.2192,0.9478,-31.585,-16.037,-29.878,1.1521,100699.01
0.8926,-0.2026,0.3711,-77.073,-61.098,-59.817,0.9877,100699.69
0.9604,-0.1216,0.376,-61.28,-28.841,-14.817,1.0386,100699.22
0.4194,0.0068,0.3433,-66.402,24.695,40.183,0.542,100699.72
0.4868,-0.0693,0.1602,-54.39,14.268,17.317,0.5172,100699.73
0.833,-0.1157,0.4785,-8.476,28.11,3.171,0.9676,100699.47
1.2598,-0.0654,0.4126,21.585,-36.89,-18.963,1.3272,100698.64
1.5854,-0.1367,0.4614,81.524,-2.561,42.805,1.6569,100698.88
0.6982,-0.0825,0.9111,67.256,-1.098,62.805,1.1509,100699.02
1.0923,-0.1245,0.4297,28.598,-60.061,36.768,1.1803,100699.49
0.4966,-0.0435,0.3506,17.988,9.085,92.012,0.6094,100699.75
0.0708,-0.1201,0.1602,-14.573,24.817,79.024,0.2123,100698.73
0.2749,-0.1543,0.1353,-31.646,-7.744,20.732,0.343,100699.55
0.5811,-0.292,0.2207,-26.951,-9.756,-31.585,0.6867,100700.29
1.2266,-0.2979,0.6274,-12.866,-44.817,-66.22,1.4096,100700.57
1.4658,-0.2749,0.6797,-34.329,-40.549,-47.561,1.639,100701.12
1.333,-0.2593,0.3823,-44.085,-8.78,-15.976,1.4108,100700.96
0.9805,-0.3164,0.437,-4.573,27.927,4.756,1.1191,100701.18
0.9717,-0.3701,0.752,23.293,22.134,-5.122,1.2832,100700.74
0.8408,-0.3218,0.728,1.829,17.012,0.732,1.1578,100700.42
0.6045,-0.2051,0.5322,-33.659,3.354,2.134,0.8311,100700.31
0.501,-0.0708,0.2402,-67.744,-5.976,-3.476,0.5601,100700.35
0.4058,-0.0747,0.0708,-60.122,19.451,-6.341,0.4186,100700.14
0.4214,-0.1479,0.2832,-20.61,36.951,-22.317,0.5288,100699.62
0.5635,-0.2925,0.5093,1.707,32.805,-50.183,0.8139,100700.57
0.9409,-0.2891,0.8154,14.39,-11.829,-84.085,1.2782,100701.26
1.6338,-0.3667,0.5601,21.22,-40.122,-73.11,1.7656,100700.61
1.1606,-0.2422,0.9424,93.659,48.963,27.317,1.5145,100700.73
0.6802,-0.0757,1.1099,73.598,49.207,31.098,1.3039,100700.91
1.3145,-0.1416,0.4507,10.122,-33.598,-8.11,1.3968,100701.02
0.896,0.0063,0.3882,16.463,-2.012,64.756,0.9765,100701.63
0.2217,0.126,0.4038,-9.39,16.402,90.732,0.4776,100701.32
0.2725,-0.002,0.2959,-48.415,-17.561,-8.232,0.4022,100701.27
1.0063,-0.0972,0.417,-48.72,-67.866,-75.61,1.0936,100700.95
1.5439,-0.2012,0.4272,-35.793,-55.183,-69.146,1.6146,100701.65
1.6201,-0.2227,0.5635,-11.829,-17.622,-18.415,1.7297,100701.09
1.2139,-0.3882,0.3623,0.427,25.122,32.439,1.3249,100700.77
0.7134,-0.5254,0.7563,44.39,52.317,38.293,1.1649,100700.7
0.7544,-0.4282,0.9902,15.305,20.549,-12.561,1.3165,100699.8
0.9175,-0.3462,0.3252,-47.988,-22.073,-35.122,1.0331,100700.82
0.7236,-0.1987,0.0493,-39.573,-17.073,9.695,0.752,100700.24
0.3843,-0.0054,0.2559,-21.28,18.415,41.159,0.4617,100699.69
0.5347,-0.0576,0.2017,-22.073,16.341,26.829,0.5743,100699.62
0.5537,-0.146,0.6001,6.951,25.61,15.976,0.8295,100700.16
0.6123,-0.1968,0.7891,-2.805,3.049,-27.5,1.018,100700.34
1.229,-0.1812,0.4214,-12.012,-55.061,-73.049,1.3118,100700.2
1.6221,-0.3662,0.4175,54.146,-5.427,-23.293,1.7145,100701.83
0.9209,-0.1797,1.0786,106.707,46.768,58.476,1.4296,100701.0
0.7891,-0.1523,0.6201,41.22,-7.622,18.415,1.0151,100700.2
1.1748,-0.2476,0.0542,34.878,-39.146,11.707,1.2018,100700.57
0.4668,-0.1582,0.4912,76.402,42.927,84.512,0.6959,100700.38
0.2007,-0.2334,0.4971,28.049,23.049,57.927,0.5847,100699.75
0.3945,-0.293,0.2686,-10.061,-12.5,9.207,0.56,100700.27
0.6025,-0.249,0.4082,-21.402,-10.854,-28.476,0.7692,100699.78
1.0415,-0.3018,0.4751,-45.061,-32.805,-62.744,1.1839,100699.7
1.2749,-0.25,0.6426,-60.915,-41.159,-58.354,1.4494,100699.84
1.2393,-0.2012,0.3374,-76.341,-26.098,-46.037,1.3,100700.46
1.1855,-0.3428,0.5156,-9.39,-0.122,-43.659,1.3375,100700.58
0.9565,-0.3159,1.0723,24.878,36.22,-22.988,1.4712,100700.91
0.4624,-0.3506,0.6641,-34.085,49.085,-30.366,0.8819,100700.45
0.7651,-0.3013,0.3877,-63.963,-2.805,-70.488,0.9091,100700.45
0.7817,-0.1323,0.3013,-86.341,3.78,-43.415,0.8482,100700.22
0.5781,-0.1157,0.0898,-94.878,26.829,-16.22,0.5964,100699.81
0.6582,-0.1714,0.2241,-65.61,23.963,-22.439,0.7161,100699.77
0.7183,-0.2417,0.4688,-41.646,16.28,-28.354,0.8911,100700.94
0.8555,-0.1704,0.6113,-30.0,-25.0,-52.256,1.0652,100701.2
1.6333,-0.1104,0.3857,-18.293,-86.463,-64.207,1.6819,100701.39
1.7026,-0.3105,0.479,55.915,-5.427,40.488,1.7958,100700.55
0.3545,-0.1255,1.1875,88.354,85.488,133.598,1.2456,100700.64
0.5786,-0.2773,0.7378,2.866,-16.098,28.415,0.9778,100699.98
1.187,-0.3501,0.2764,-16.402,-59.39,5.854,1.268,100700.07
0.3843,-0.2715,0.4106,-1.22,45.244,76.22,0.6245,100699.88
0.0396,-0.3984,0.3091,-33.171,42.744,36.829,0.5058,100700.0
0.4111,-0.3584,0.415,-56.22,-2.927,-35.854,0.6854,100699.59
0.6772,-0.2275,0.4893,-86.037,-3.11,-71.829,0.8659,100699.66
1.0703,-0.1494,0.3545,-115.0,-21.098,-88.902,1.1373,100700.08
1.2026,-0.2451,0.228,-109.573,-9.207,-65.122,1.2484,100700.66
1.0898,-0.2622,0.4941,-86.28,11.707,-40.915,1.225,100701.1
0.9458,-0.3081,0.3389,-84.573,19.634,-34.939,1.0509,100701.17
0.9595,-0.5288,0.8169,-34.756,47.012,-53.232,1.3666,100701.1
0.8823,-0.5288,0.9277,-51.341,57.195,-52.622,1.3852,100701.79
0.5107,-0.478,0.6104,-86.341,64.878,-66.829,0.9284,100701.33
0.832,-0.3271,0.5156,-92.561,15.976,-109.573,1.0321,100700.51
0.8525,-0.2163,0.3901,-93.293,18.415,-88.537,0.9622,100701.01
0.6885,-0.1602,0.3936,-79.695,40.793,-57.195,0.809,100701.02
0.6558,-0.1855,0.4849,-65.183,48.659,-47.012,0.8364,100701.27
0.6128,-0.2271,0.5376,-59.085,24.756,-51.646,0.8462,100700.8
0.7217,-0.2256,0.5337,-62.744,-20.183,-69.146,0.9255,100700.39
1.0474,-0.2959,0.249,-60.0,-52.317,-71.22,1.1165,100700.19
1.1685,-0.3853,0.7275,4.146,-29.329,-18.171,1.4293,100699.78
0.7212,-0.2495,0.9062,-16.22,10.793,24.146,1.1848,100700.69
0.7163,-0.5308,0.3291,-49.207,7.439,0.183,0.9503,100701.01
0.6543,-0.5083,0.8203,-12.622,39.451,-2.012,1.1659,100701.1
0.4624,-0.4175,1.0493,-56.098,51.22,-33.232,1.2203,100701.57
0.7427,-0.3379,0.6724,-114.817,1.22,-84.817,1.0573,100701.54
0.7617,-0.0474,0.4297,-153.232,12.561,-86.585,0.8758,100700.53
0.8257,-0.0547,0.1011,-158.78,-3.841,-79.512,0.8336,100701.0
0.8604,-0.1431,0.2407,-117.683,5.427,-58.293,0.9048,100701.61
0.792,-0.1357,0.7065,-93.476,-5.427,-54.451,1.07,100701.34
0.9653,-0.1602,0.6133,-111.037,-37.805,-71.707,1.1548,100701.01
1.1924,-0.2793,0.6836,-89.024,-21.585,-68.354,1.4025,100700.52
1.0342,-0.4082,0.7588,-68.659,40.183,-22.927,1.3461,100700.51
0.479,-0.4688,0.7734,-66.646,90.244,-10.061,1.0234,100699.9
0.6445,-0.3652,0.7798,-82.134,32.683,-67.073,1.0756,100699.95
0.7773,-0.2656,0.519,-106.037,4.878,-77.439,0.9717,100699.98
0.5542,-0.2358,0.3149,-103.11,30.549,-58.598,0.6797,100699.73
0.6636,-0.209,0.3169,-84.268,28.415,-66.524,0.7645,100700.18
1.0171,-0.21,0.3218,-64.634,19.512,-69.268,1.0872,100700.72
1.0898,-0.3154,0.3164,-32.073,32.988,-44.634,1.1779,100700.31
1.1978,-0.3086,0.6118,6.098,-9.085,-38.049,1.3799,100700.47
1.231,-0.3394,0.833,16.524,-33.841,-17.561,1.5246,100699.51
0.5522,-0.2515,0.8169,-0.244,13.902,39.695,1.0176,100700.47
0.2354,-0.2803,0.561,-31.402,20.061,11.037,0.6699,100700.48
0.6753,-0.2534,0.6382,-34.695,-29.207,-37.561,0.9631,100700.47
0.5762,-0.2129,0.5918,-54.451,-5.305,-26.768,0.8529,100700.6
0.5024,-0.1997,0.3789,-72.378,5.793,-32.439,0.6602,100699.96
0.7295,-0.0933,0.4429,-70.0,-4.024,-49.207,0.8585,100700.79
1.0215,-0.0791,0.4009,-80.549,-9.878,-56.829,1.1002,100701.05
1.2075,-0.0991,0.3042,-66.951,-13.476,-31.098,1.2492,100701.02
0.9585,-0.0806,0.4409,-37.073,11.646,3.537,1.0581,100701.26
0.9932,-0.1743,0.5713,-33.293,-4.39,-23.78,1.1589,100700.81
1.3701,-0.1455,0.439,-36.646,-51.28,-45.61,1.4461,100700.38
1.2314,-0.3184,0.3467,-0.61,-16.22,-6.829,1.3183,100700.66
0.7837,-0.3926,0.7593,50.183,34.451,36.159,1.1597,100700.98
0.4004,-0.3535,1.0063,27.561,30.122,23.598,1.1393,100699.77
0.5142,-0.2764,0.6196,-37.927,-31.829,-17.378,0.8513,100699.92
0.5591,-0.2002,0.2812,-54.573,-12.256,-11.707,0.6571,100699.44
0.6099,-0.1636,0.4297,-28.11,51.28,-1.098,0.7638,100699.94
0.6919,-0.2095,0.4658,-24.207,54.268,-10.427,0.86,100700.7
0.8433,-0.2314,0.3833,-20.0,18.537,-26.646,0.9548,100701.35
1.0278,-0.2227,0.4653,-4.512,-1.402,-27.195,1.15,100700.67
1.2046,-0.2744,0.3994,13.232,-16.22,-6.646,1.2984,100700.75
0.9053,-0.1875,0.8335,60.122,5.061,45.061,1.2447,100699.34
0.3335,0.0151,0.9692,39.207,14.756,34.085,1.0251,100699.27
0.8452,-0.1206,0.54,13.354,-44.634,-39.329,1.0102,100698.59
1.0371,-0.0391,0.8994,35.854,-16.28,-7.561,1.3733,100699.78
0.3799,-0.022,0.6416,-24.634,26.159,39.329,0.746,100699.85
0.3818,-0.1333,0.061,-70.549,-2.744,7.073,0.409,100700.27
0.6548,-0.0317,0.2959,-43.171,-14.329,-15.061,0.7192,100700.7
0.7837,0.0039,0.3687,-43.841,-27.073,-31.098,0.8661,100700.8
1.1978,-0.0962,0.3252,-35.183,-56.22,-57.256,1.2448,100700.98
1.5444,-0.0469,0.6289,-7.744,-58.171,-44.512,1.6682,100700.38
1.3442,-0.0425,0.543,-6.829,-29.817,-8.598,1.4504,100699.55
1.1558,-0.1929,0.5557,27.622,-1.829,0.854,1.2968,100699.2
1.0649,-0.2197,0.771,51.28,7.134,15.244,1.333,100699.88
0.6587,-0.2114,0.689,28.537,18.902,33.11,0.9763,100699.68
0.5166,-0.1196,0.4663,-4.756,-13.049,14.512,0.7061,100700.62
0.6401,-0.0181,0.1523,-27.134,-26.829,6.585,0.6583,100699.75
0.5645,-0.0259,0.084,-6.159,17.5,28.72,0.5713,100699.95
0.5317,-0.0542,0.3086,23.841,33.963,36.037,0.6172,100699.48
0.6099,-0.1206,0.5176,29.024,14.146,17.561,0.8089,100700.45
0.8799,-0.1895,0.647,21.159,-15.488,-8.11,1.1084,100700.09
1.1606,-0.1143,0.3657,9.817,-35.793,-13.049,1.2223,100700.31
1.5044,-0.2866,0.1006,70.732,0.0,19.756,1.5348,100700.46
1.0918,-0.0996,1.1348,176.707,76.28,87.134,1.5779,100700.84
0.7871,0.0068,1.2852,124.268,40.915,57.683,1.5071,100700.95
1.022,-0.1323,0.5322,49.817,-30.61,23.902,1.1598,100701.41
0.5254,-0.0542,0.4595,39.634,15.122,69.146,0.7001,100701.27
0.2314,0.0024,0.4839,-5.671,22.5,61.524,0.5364,100700.52
0.5361,-0.0928,0.1113,-57.195,-10.854,27.5,0.5554,100700.59
0.396,-0.1934,0.0757,-42.866,22.317,25.061,0.4471,100700.15
0.7734,-0.2729,0.3228,-25.366,-10.671,-31.585,0.8814,100699.68
1.5425,-0.2861,0.5332,-11.951,-55.061,-55.183,1.6569,100700.19
1.5405,-0.1641,0.8867,0.671,-16.402,-7.439,1.7851,100700.21
1.1279,-0.1846,0.6992,-15.976,1.829,22.439,1.3399,100700.71
0.8125,-0.2949,0.5889,9.024,13.415,20.366,1.0459,100699.74
0.6113,-0.2891,0.7666,31.341,23.78,6.341,1.0222,100699.51
0.5361,-0.2578,0.563,1.707,0.488,-15.976,0.8191,100699.15
0.6812,-0.2153,0.2559,-27.378,-24.451,-26.707,0.7588,100699.09
0.7368,-0.1255,0.2275,-32.683,2.256,-1.951,0.7813,100699.07
0.5337,-0.0205,0.3037,-29.024,24.451,22.866,0.6144,100699.52
0.5229,-0.1113,0.3428,-19.268,26.037,5.244,0.6351,100700.33
0.6909,-0.23,0.4624,3.963,18.171,-28.293,0.8626,100700.09
0.9727,-0.1816,0.7617,25.854,-11.829,-65.122,1.2487,100700.18
1.5801,-0.1973,0.5337,41.463,-46.646,-72.195,1.6794,100699.01
1.2168,-0.0659,0.834,109.512,24.634,5.671,1.4766,100699.1
0.8672,0.0615,1.0146,101.646,52.439,26.22,1.3362,100699.16
1.0508,-0.0771,0.7046,49.451,-0.427,17.5,1.2675,100699.73
0.5425,-0.0435,0.584,9.146,5.244,60.488,0.7983,100699.63
0.1714,-0.0928,0.2671,-51.159,13.537,60.671,0.3306,100699.22
0.2466,-0.1836,0.0796,-67.439,4.268,30.061,0.3176,100699.51
0.3525,-0.2583,0.3765,-43.049,6.28,-13.841,0.5768,100700.35
1.0459,-0.2627,0.5122,-55.0,-64.39,-72.073,1.1938,100700.49
1.3887,-0.2944,0.4209,-53.476,-65.305,-49.512,1.4806,100700.21
1.3081,-0.1987,0.6265,-10.427,-21.829,-2.561,1.4639,100700.97
1.0376,-0.3047,0.9312,20.671,21.402,-12.134,1.4271,100701.89
0.7744,-0.3325,0.5044,-5.122,27.012,-3.415,0.9822,100702.1
0.4624,-0.3145,0.4102,-11.524,31.524,-3.171,0.6935,100701.4
0.5391,-0.2153,0.4312,-36.22,-0.183,-17.134,0.7231,100701.48
0.6426,-0.1733,0.3809,-63.415,5.732,-11.159,0.7668,100700.79
0.6938,-0.1987,0.3936,-59.512,23.171,-2.744,0.8221,100700.66
0.6792,-0.2173,0.6113,-46.89,23.293,-13.415,0.9393,100701.51
0.7046,-0.1973,0.5679,-51.22,-8.78,-42.439,0.9262,100701.19
0.8955,-0.1382,0.4946,-43.171,-54.756,-69.939,1.0323,100701.45
1.187,-0.2251,0.1743,-12.561,-53.415,-60.305,1.2207,100700.9
1.021,-0.1494,0.6538,74.695,1.707,-12.073,1.2216,100700.74
1.1226,-0.1338,0.7905,88.537,-2.622,-19.939,1.3795,100700.51
1.4839,-0.3691,0.7617,87.256,-9.512,7.927,1.7083,100700.78
0.4321,-0.3271,1.019,49.939,79.207,93.11,1.1542,100700.63
-0.0054,-0.3242,0.4551,-57.317,33.659,51.098,0.5588,100700.85
0.3232,-0.2227,0.1021,-94.146,-34.695,-6.341,0.4056,100699.92
0.2871,-0.145,0.2759,-88.232,15.366,-8.049,0.4238,100699.67
0.2651,-0.2271,0.3008,-97.805,47.439,-39.756,0.4608,100699.74
0.8672,-0.2266,0.666,-92.378,-0.549,-111.341,1.1167,100700.16
1.793,-0.1353,0.8188,-114.024,-64.085,-137.378,1.9757,100700.2
1.7759,-0.1895,0.2886,-126.28,-32.866,-59.634,1.8091,100700.22
0.9971,-0.4678,1.2246,7.5,46.646,-30.366,1.647,100700.2
0.502,-0.4639,0.9365,-52.012,63.72,-31.402,1.1594,100700.06
0.3501,-0.2363,0.5576,-102.988,15.732,-72.195,0.6995,100699.97
0.6084,-0.0752,0.1436,-138.415,-17.073,-89.695,0.6296,100699.89
0.6157,-0.1357,0.0352,-117.317,35.427,-54.146,0.6315,100699.34
0.459,-0.1714,0.313,-85.061,77.439,-43.598,0.5814,100699.65
0.7231,-0.3267,0.3257,-82.439,36.707,-89.024,0.8577,100699.52
1.0112,-0.3491,0.4297,-56.463,-20.366,-98.841,1.1529,100699.41
0.96,-0.2979,0.7446,-34.634,-48.841,-84.146,1.2509,100699.2
1.186,-0.4604,0.687,-36.646,-55.732,-49.878,1.4459,100699.15
0.4243,-0.4502,0.9629,-18.598,25.366,11.402,1.1445,100699.01
0.5972,-0.4272,0.9722,-43.963,-3.476,-48.476,1.2183,100698.79
1.0649,-0.521,0.6821,-60.915,-19.451,-71.463,1.3678,100699.7
0.8369,-0.4624,0.8857,-48.963,37.927,-40.427,1.3034,100699.43
0.6792,-0.3071,0.8604,-86.159,45.244,-45.488,1.1384,100699.74
0.6274,-0.2188,0.4673,-126.829,30.976,-63.598,0.8123,100699.73
0.6851,-0.0977,0.4785,-135.244,37.866,-69.817,0.8413,100700.1
0.5708,-0.041,0.4731,-159.207,42.561,-78.11,0.7425,100700.49
0.5923,-0.1118,0.4614,-175.244,10.305,-103.171,0.7591,100700.45
0.6782,-0.1426,0.7153,-187.622,-3.72,-119.756,0.996,100700.27
0.7661,-0.1162,0.5391,-215.244,-27.683,-130.0,0.9439,100700.05
0.9673,-0.356,0.3047,-192.805,-18.659,-122.134,1.0748,100699.96
0.9131,-0.5649,0.4648,-128.598,41.646,-87.927,1.17,100700.67
0.9722,-0.5942,0.7993,-66.951,60.061,-96.341,1.3918,100701.69
0.9204,-0.2554,0.9434,8.293,43.537,-64.512,1.3425,100701.24
0.5898,-0.1841,0.9966,3.049,74.085,-48.537,1.1726,100701.63
0.7178,-0.1685,0.7715,-37.805,22.195,-64.39,1.0671,100701.82
0.7671,-0.1392,0.5156,-67.134,-9.939,-47.866,0.9347,100701.71
0.6592,-0.0439,0.417,-77.5,-14.085,-13.659,0.7812,100701.29
0.7554,-0.0151,0.2612,-65.0,-33.171,5.061,0.7994,100700.58
0.7876,-0.1499,0.645,-3.963,-22.012,35.427,1.029,100701.02
0.415,-0.063,0.8276,2.622,-2.683,45.244,0.928,100701.23
0.5669,-0.167,0.5107,-20.854,-34.939,-9.085,0.7811,100701.0
0.9619,-0.2305,0.4893,-7.622,-36.768,-14.329,1.1035,100701.45
0.6577,-0.1685,0.6807,-12.439,27.744,24.817,0.9614,100701.66
0.5005,-0.2476,0.2612,-53.293,21.159,6.951,0.6165,100701.6
0.7734,-0.2808,0.2808,-39.329,-6.89,-27.622,0.8694,100701.29
1.0488,-0.2451,0.5806,-33.11,-17.378,-41.22,1.2236,100702.38
1.1611,-0.3184,0.4619,-49.39,-33.72,-40.671,1.2896,100702.51
1.2544,-0.2524,0.5728,-37.988,-36.463,-24.512,1.4019,100701.37
0.9556,-0.3457,0.646,-11.28,27.439,-9.695,1.2041,100701.37
0.8481,-0.3252,1.1206,23.476,16.951,-41.524,1.4425,100701.4
0.8604,-0.2197,0.7871,-33.476,-34.573,-58.537,1.1866,100701.28
0.7168,-0.249,0.103,-78.72,-22.5,-24.878,0.7658,100700.82
0.4272,-0.2427,0.1182,-48.476,26.22,20.793,0.5054,100700.6
0.187,-0.0474,0.6919,-37.805,36.159,12.317,0.7183,100699.81
0.5894,-0.0488,0.4419,-87.317,-21.585,-51.463,0.7382,100700.8
1.0371,-0.0981,0.291,-65.549,-28.537,-58.354,1.0816,100701.19
0.9258,-0.145,0.2896,-7.805,31.341,-1.22,0.9808,100701.11
0.668,-0.3003,0.5229,69.146,88.537,32.805,0.8999,100701.26
0.7061,-0.1006,1.1035,120.976,57.439,11.585,1.3139,100700.52
1.082,-0.0737,1.1099,106.28,22.622,-35.305,1.5518,100701.17
1.6401,-0.0317,1.2158,84.512,0.488,-32.561,2.0419,100701.93
1.2129,0.0698,0.7231,16.768,16.829,56.646,1.4138,100701.62
0.3755,-0.019,0.1172,-11.22,47.866,107.866,0.3938,100701.41
0.21,-0.0161,0.6772,25.244,10.244,62.073,0.7092,100702.09
0.4907,-0.1021,0.854,-27.378,-49.512,-14.512,0.9902,100703.11
0.7476,-0.2798,0.2896,-82.927,-67.866,-47.5,0.8491,100702.61
0.8306,-0.2192,0.2798,-69.695,-54.024,-30.0,0.9034,100702.58
0.8564,-0.1631,0.3569,-71.524,-49.085,-11.463,0.9421,100702.45
0.9155,-0.0508,0.459,-86.22,-73.841,2.805,1.0254,100702.12
0.7412,-0.0576,0.2075,-67.5,-43.171,9.207,0.7719,100701.35
1.1802,-0.4287,0.7261,35.366,-15.0,-17.927,1.4504,100700.63
1.1558,-0.2485,1.0991,61.22,16.585,12.988,1.6142,100700.95
0.7476,-0.2114,0.6333,12.195,25.549,39.024,1.0023,100700.71
0.4712,-0.1406,0.4189,0.549,38.354,57.927,0.646,100699.8
0.1616,-0.0142,0.6997,0.366,75.061,47.5,0.7183,100700.19
0.4634,-0.1289,0.5464,-29.207,37.988,-22.256,0.7279,100700.25
0.8774,-0.1841,0.6035,-20.671,10.122,-45.488,1.0808,100700.53
0.9966,-0.2266,0.3525,21.098,1.89,5.732,1.0811,100700.52
0.8164,0.0835,1.23,106.463,-9.939,23.171,1.4786,100700.12
0.8569,-0.0337,0.625,46.829,-40.793,3.963,1.0612,100700.22
0.8687,-0.1338,0.3955,56.585,-31.768,34.451,0.9638,100700.3
0.4565,0.0293,0.7666,50.244,6.646,81.707,0.8927,100699.71
0.2397,-0.1348,0.2974,-25.976,18.171,61.341,0.405,100699.66
0.3984,-0.1958,0.3662,-21.951,8.171,9.817,0.5755,100699.86
0.707,-0.1162,0.9209,-35.0,-14.573,-51.22,1.1668,100700.09
1.4424,-0.2412,0.3989,-93.293,-70.061,-79.573,1.5158,100700.66
1.5239,-0.2437,0.4741,-61.524,-24.695,-10.915,1.6145,100701.68
0.9946,-0.2217,0.3062,-30.061,32.5,46.707,1.064,100701.12
0.791,-0.417,0.5654,41.951,45.793,38.963,1.058,100700.34
0.6689,-0.3301,1.0688,82.683,40.854,21.22,1.3034,100700.5
0.4658,-0.2881,0.8774,38.537,21.159,-7.378,1.0344,100700.11
0.6357,-0.2456,0.5854,-10.122,-10.732,-26.951,0.8985,100699.96
0.5908,-0.0806,0.4761,-43.354,4.878,-2.073,0.763,100700.48
0.4956,-0.0864,0.3921,-48.232,24.878,5.0,0.6378,100700.36
0.626,-0.1558,0.6841,-26.341,23.293,-16.951,0.9403,100701.26
0.5562,-0.1807,0.6978,-35.793,9.146,-47.744,0.9104,100701.09
1.0171,-0.0991,0.3574,-42.317,-66.89,-92.988,1.0826,100701.57
1.4321,-0.3374,-0.0098,21.646,-44.451,-32.378,1.4714,100701.59
0.5127,-0.1313,0.8882,139.939,89.573,94.817,1.0339,100701.09
0.1133,-0.0371,1.2275,114.207,75.305,49.268,1.2333,100700.24
0.8457,-0.2749,1.0181,52.988,-12.927,-53.841,1.3518,100700.45
0.8394,-0.1929,1.0459,-1.951,-17.256,-35.854,1.3549,100699.99
0.4731,-0.1299,0.5522,-80.122,-16.098,-13.902,0.7387,100699.51
0.4355,-0.0635,0.23,-97.073,-33.476,-25.0,0.4966,100700.0
0.5811,-0.0527,0.1997,-76.22,-33.598,-44.817,0.6167,100700.6
1.0234,-0.0713,0.2051,-61.768,-58.232,-74.39,1.0462,100700.94
1.5244,-0.1465,0.1748,-34.512,-65.732,-49.146,1.5414,100701.28
1.4238,-0.2056,0.7285,17.5,-9.085,28.476,1.6125,100701.43
1.082,-0.1724,0.8745,11.098,17.622,72.256,1.4019,100701.42
0.7041,-0.3057,0.9565,12.866,31.524,56.768,1.2264,100702.25
0.7427,-0.3018,0.9834,-4.39,8.78,6.037,1.2687,100702.15
0.6831,-0.3237,0.5806,-37.317,1.402,-16.098,0.9531,100701.09
0.7095,-0.2437,0.4771,-47.561,-11.098,-20.122,0.889,100700.58
0.6011,-0.1162,0.2505,-77.622,-3.963,-4.512,0.6615,100700.3
0.519,-0.0981,0.0171,-73.72,16.89,4.024,0.5285,100700.59
0.6982,-0.1455,0.3579,-22.988,37.012,3.354,0.798,100700.93
0.627,-0.2227,0.7114,-0.61,52.195,5.61,0.974,100700.43
0.6328,-0.272,0.6963,-8.049,12.439,-23.659,0.9794,100700.3
1.0674,-0.353,0.5527,6.829,-28.841,-37.805,1.2528,100700.21
0.8423,-0.2822,0.7808,45.427,13.293,22.622,1.1827,100700.74
0.582,-0.2515,0.5854,35.244,34.085,30.366,0.863,100700.77
0.958,-0.3628,0.6313,61.159,0.61,2.561,1.2033,100700.77
0.8994,-0.2495,1.0977,64.146,0.366,17.988,1.4409,100701.66
0.6411,-0.335,0.5693,-5.915,-13.354,15.122,0.9205,100700.77
0.6006,-0.3081,0.3716,-20.61,-31.951,-1.585,0.7705,100701.31
0.6216,-0.27,0.3682,-37.988,-23.598,-8.049,0.7712,100701.92
0.5552,-0.3965,0.1489,-56.707,-6.098,-2.317,0.6983,100701.07
0.3477,-0.3228,0.6265,-49.39,2.256,-13.659,0.7858,100701.15
0.7104,-0.2412,0.854,-102.927,-48.963,-80.976,1.1368,100700.7
1.2231,-0.3203,0.0264,-139.634,-65.061,-87.5,1.2647,100701.86
0.957,-0.6929,0.4272,-2.378,55.427,-32.683,1.2564,100701.98
0.918,-0.5522,1.666,75.793,74.329,-33.598,1.9807,100701.94
0.7559,-0.4927,1.1377,-18.841,41.585,-62.988,1.452,100702.06
0.7568,-0.4761,0.4194,-67.683,11.585,-76.463,0.9876,100701.9
0.6743,-0.3203,0.4492,-69.024,34.695,-40.183,0.8713,100702.03
0.2495,-0.231,0.3672,-94.451,69.39,-21.22,0.5004,100701.87
0.4067,-0.3013,0.2993,-103.476,39.39,-67.317,0.588,100702.13
0.7451,-0.3984,0.4629,-94.268,27.622,-88.293,0.9634,100702.18
0.7852,-0.3403,0.5605,-84.329,10.915,-85.793,1.023,100701.52
1.062,-0.333,0.5005,-77.317,-45.0,-95.427,1.2203,100701.59
1.4014,-0.5562,0.478,-40.61,-46.585,-48.049,1.5817,100701.3
0.8354,-0.3467,1.3916,12.012,29.573,53.293,1.6597,100700.59
0.1221,-0.3052,1.1084,-64.512,60.122,32.744,1.1561,100701.48
0.5264,-0.6401,0.4419,-86.524,-7.927,-59.939,0.9392,100701.56
0.6255,-0.5767,0.8027,-36.037,8.902,-77.073,1.1697,100701.26
0.6714,-0.4155,0.7534,-62.805,-5.976,-91.585,1.0914,100701.16
0.7271,-0.5811,0.3535,-91.402,8.902,-79.817,0.9956,100701.21
0.2876,-0.4492,0.8149,-86.524,60.732,-54.878,0.974,100701.5
0.2139,-0.1982,0.8438,-163.902,26.768,-97.927,0.8927,100701.23
0.5132,-0.3315,0.2891,-224.878,-10.366,-136.768,0.6759,100701.03
0.5654,-0.2866,0.7446,-198.598,8.963,-136.585,0.9779,100701.15
0.7183,-0.1343,0.875,-216.524,-3.78,-157.012,1.14,100701.33
1.2417,-0.3931,0.646,-202.073,-37.073,-166.402,1.4538,100702.2
1.063,-0.4082,0.8638,-147.012,36.159,-100.793,1.4292,100702.47
0.6768,-0.3428,0.8657,-114.756,91.524,-88.841,1.1511,100702.09
0.8428,-0.2422,0.6694,-80.732,50.305,-121.098,1.1032,100701.06
1.0449,-0.1294,0.7207,-45.366,51.402,-111.89,1.2759,100700.77
0.9946,-0.1538,0.5552,-46.768,58.963,-76.829,1.1494,100701.18
0.791,-0.167,0.2939,-54.268,32.195,-38.049,0.8602,100701.49
0.7275,-0.0635,0.2305,-67.5,-4.756,-14.817,0.7658,100701.7
0.8301,-0.0815,-0.2085,-73.963,-29.695,3.171,0.8597,100701.51
0.8105,-0.3066,0.2832,33.537,-11.098,25.488,0.9117,100701.46
0.8896,-0.1875,1.2734,87.927,-19.024,33.415,1.5647,100701.67
0.563,-0.1372,1.103,13.659,-3.72,34.024,1.246,100701.85
0.4766,-0.1562,0.5493,-48.598,-4.573,12.378,0.7438,100701.77
0.5283,-0.1948,0.3818,-54.451,22.866,0.061,0.6804,100701.93
0.3535,-0.3262,0.4819,-44.207,64.512,-17.683,0.6809,100702.41
1.1313,-0.3071,0.7803,-102.378,-43.11,-125.244,1.4082,100702.26
1.4897,-0.1934,0.6084,-127.927,-62.195,-102.744,1.6208,100702.77
1.3472,-0.1538,0.3545,-114.878,-31.951,-27.256,1.4015,100702.66
0.8052,-0.3237,0.5073,-43.659,46.707,29.634,1.0052,100703.83
0.5698,-0.4507,0.8848,2.5,72.561,10.244,1.1448,100703.49
0.5977,-0.3647,0.7788,-22.134,24.085,-39.329,1.0473,100703.61
0.749,-0.2778,0.3447,-58.72,-19.512,-52.805,0.8701,100703.91
0.4961,-0.1465,0.1704,-63.537,23.78,-11.646,0.5446,100703.42
0.4355,-0.0908,0.2603,-42.683,58.659,-10.183,0.5154,100704.5
0.6704,-0.3096,0.5308,-3.232,50.0,-32.744,0.9094,100703.76
0.6567,-0.3169,1.1147,24.146,9.024,-55.061,1.3321,100703.15
1.3345,-0.1553,0.8193,-14.39,-112.012,-99.634,1.5736,100703.23
1.7344,-0.2368,0.3291,30.366,-74.817,4.268,1.7811,100702.94
0.4072,0.0137,1.1182,126.098,105.488,157.988,1.1901,100703.07
0.1372,-0.1943,0.9985,64.939,54.207,87.256,1.0265,100703.62
0.77,-0.2651,0.6079,12.5,-53.11,0.732,1.0163,100703.34
0.4556,-0.125,0.6367,-10.183,-18.78,29.268,0.7928,100703.48
0.251,-0.1655,0.4302,-59.634,-1.707,23.476,0.5248,100702.84
0.3618,-0.228,0.3291,-69.329,-16.524,-9.329,0.5396,100702.72
0.5469,-0.2588,0.4517,-57.561,-25.061,-42.805,0.755,100702.63
0.9873,-0.2939,0.5244,-53.11,-43.232,-67.927,1.1559,100702.8
1.3047,-0.4131,0.5957,-37.683,-40.61,-46.037,1.4926,100702.66
1.2319,-0.3042,0.8281,-26.707,-19.024,-10.549,1.5153,100703.45
1.0127,-0.2837,0.645,-43.415,-6.951,-6.159,1.2337,100703.42
0.9585,-0.2632,0.6382,-32.012,-0.305,-4.39,1.1812,100702.89
0.6279,-0.2031,0.5962,-30.061,40.305,11.829,0.8894,100703.34
0.4414,-0.2358,0.3516,-34.024,40.854,-3.415,0.6116,100703.67
0.6016,-0.1855,0.4272,-23.537,26.402,-19.634,0.7608,100703.42
0.5474,-0.123,0.4224,-31.402,60.0,-8.354,0.7022,100703.46
0.6187,-0.1133,0.3286,-20.061,61.524,-13.72,0.7096,100702.42
0.7188,-0.0723,0.6416,6.707,66.22,-13.232,0.9662,100702.48
0.6035,-0.1221,0.5532,-11.585,54.512,-25.305,0.8278,100702.91
1.271,-0.1826,0.4126,-8.598,-35.915,-60.61,1.3487,100703.1
1.4775,-0.1611,0.4282,34.146,-31.524,-0.549,1.5468,100702.85
0.6973,0.0166,1.1704,117.256,26.768,70.732,1.3625,100702.81
0.6909,0.2417,1.6357,93.537,-39.146,17.622,1.792,100703.27
0.7598,0.0732,1.0957,4.085,-63.963,-9.695,1.3354,100702.97
0.4277,0.0269,0.5322,-43.415,-40.305,16.402,0.6833,100703.01
0.3784,-0.0405,0.166,-48.232,-27.134,26.89,0.4152,100702.92
0.8008,-0.2671,0.9795,34.634,-8.841,28.476,1.2931,100702.1
0.7759,-0.1929,0.835,-18.415,-10.366,0.671,1.156,100702.48
1.2329,-0.1504,0.4946,-25.732,-28.476,-38.598,1.3369,100702.77
1.2954,-0.1489,0.7334,24.512,11.037,-8.902,1.496,100703.48
0.9165,-0.1646,0.6538,27.073,41.585,34.451,1.1378,100702.67
0.604,-0.1406,0.3628,14.085,19.024,43.659,0.7185,100702.79
0.5479,-0.084,0.2607,14.634,-10.488,42.805,0.6125,100702.88
0.4492,-0.0659,0.4224,20.122,4.268,44.268,0.6201,100703.3
0.6152,-0.0815,0.5645,17.744,-1.707,19.634,0.8389,100703.29
0.7476,-0.1357,0.5825,11.89,-4.024,-7.256,0.9574,100703.73
1.0117,-0.1875,0.4097,13.232,-23.11,-22.5,1.1075,100702.96
1.0757,-0.1592,0.4585,43.354,-12.134,0.305,1.1801,100703.1
1.0439,-0.2485,0.4438,87.561,1.28,21.098,1.1613,100703.56
0.7363,-0.2871,1.1572,163.354,37.622,48.049,1.4014,100703.56
0.2856,0.0088,1.5269,122.988,18.354,8.72,1.5534,100704.05
0.9209,-0.1401,0.8076,24.085,-68.476,-85.488,1.2329,100703.7
1.1914,-0.1411,0.5996,1.341,-73.232,-53.171,1.3412,100703.94
0.5474,-0.0596,0.3853,-27.256,-13.963,25.305,0.672,100703.96
0.4272,-0.0923,0.1079,-42.439,-14.756,34.695,0.4502,100703.74
0.3638,-0.0444,0.2632,-25.976,-1.585,37.134,0.4512,100703.58
0.4531,-0.1035,0.2681,-32.5,-10.305,-6.768,0.5366,100704.3
1.4087,-0.2417,0.2412,-23.598,-82.988,-56.22,1.4495,100703.95
1.6309,-0.1748,0.7554,6.768,-39.939,7.988,1.8058,100703.08
0.7158,-0.1743,0.5986,-28.232,26.707,41.098,0.9493,100702.78
0.7783,-0.2881,0.8599,10.183,38.171,-7.622,1.195,100702.31
0.8311,-0.2939,0.8687,-11.463,23.659,-44.634,1.2376,100701.62
0.7642,-0.271,0.335,-56.341,-4.024,-53.902,0.8773,100701.83
0.6914,-0.125,0.1274,-62.256,-20.427,-32.866,0.7141,100701.49
0.6162,-0.0269,0.1235,-56.341,-0.854,-1.768,0.629,100701.36
0.709,-0.0444,0.2637,-34.207,23.415,13.354,0.7577,100701.25
0.6797,-0.1025,0.4854,-6.89,42.134,25.915,0.8415,100701.3
0.4307,-0.1113,0.7026,1.22,33.902,-1.098,0.8316,100701.56
1.0591,-0.1069,0.4814,1.341,-51.28,-74.207,1.1683,100701.27
1.7705,-0.1807,0.4644,73.963,-39.512,-30.183,1.8393,100700.8
0.6704,0.0376,1.1133,134.268,90.61,82.134,1.3001,100701.3
0.6274,-0.1294,0.9136,89.146,38.963,28.659,1.1158,100701.19
1.1313,-0.1855,0.939,55.915,-32.073,1.707,1.4819,100701.11
0.5615,-0.1113,0.6714,-15.61,2.805,54.695,0.8823,100701.41
0.3735,-0.1851,0.1997,-75.854,0.061,47.683,0.4622,100700.64
0.3574,-0.1689,0.2319,-72.439,-11.402,34.329,0.4584,100701.04
0.2793,-0.231,0.1211,-79.573,-1.585,-2.622,0.3821,100701.95
0.8711,-0.3755,0.1001,-57.5,-40.244,-57.073,0.9538,100702.27
1.4087,-0.3066,0.7485,-18.11,-39.39,-50.244,1.6244,100701.28
1.3149,-0.2202,0.936,-50.488,-20.61,-21.585,1.629,100701.39
1.0649,-0.3672,0.5698,-61.159,9.207,-17.683,1.2624,100701.59
1.0508,-0.4888,0.9746,-11.22,29.634,-27.805,1.5142,100702.98
0.7671,-0.4707,0.8872,-31.585,46.89,-25.915,1.2638,100703.39
0.5703,-0.4966,0.4678,-62.866,28.476,-45.549,0.8892,100703.19
0.5894,-0.3027,0.2812,-76.951,-8.232,-47.317,0.7198,100702.81
0.5532,-0.2183,0.2275,-68.171,38.598,-29.268,0.6368,100703.14
0.6943,-0.3154,0.4775,-46.22,42.378,-37.5,0.8998,100702.91
0.7495,-0.3667,0.6602,-35.0,26.22,-47.378,1.064,100703.08
1.0381,-0.3247,0.7939,-32.988,-25.427,-67.744,1.3466,100702.98
1.4126,-0.5571,0.4399,-17.988,-37.256,-40.427,1.5809,100703.12
1.0239,-0.4443,1.0415,47.5,14.207,52.927,1.5266,100702.51
0.3418,-0.2202,1.0713,-3.659,48.293,65.122,1.1459,100702.16
0.5259,-0.4692,0.25,-51.646,-10.549,3.841,0.7478,100702.62
0.4233,-0.4355,0.5728,-6.402,20.366,-1.585,0.8348,100702.47
0.2832,-0.2881,0.9629,-44.268,33.476,-35.244,1.0442,100701.73
0.6357,-0.4131,0.3721,-125.793,-18.537,-83.293,0.8445,100701.44
0.666,-0.4648,0.2974,-122.988,12.439,-71.28,0.8649,100701.3
0.543,-0.3535,0.5117,-129.634,41.707,-61.829,0.8256,100700.97
0.6147,-0.3677,0.3169,-158.11,19.329,-76.28,0.7833,100700.73
0.688,-0.3896,0.5601,-138.902,12.073,-92.134,0.9689,100701.16
1.0142,-0.3179,0.6636,-129.817,3.354,-106.89,1.253,100701.48
1.0347,-0.6504,0.8062,-73.293,55.488,-97.561,1.464,100702.1
0.9443,-0.5083,1.4375,-39.024,65.976,-82.134,1.7935,100702.3
0.4175,-0.4097,0.916,-104.146,79.085,-88.476,1.0868,100702.36
0.5513,-0.3335,0.5811,-119.817,37.012,-137.5,0.8676,100702.04
0.7354,-0.1465,0.6636,-130.732,18.963,-150.976,1.0013,100702.41
0.6562,-0.1299,0.2471,-161.646,5.793,-143.415,0.7131,100702.93
0.73,-0.0938,0.2422,-140.854,-10.366,-141.341,0.7748,100702.6
0.8364,-0.0576,0.311,-117.256,-12.012,-121.707,0.8942,100702.48
0.7319,-0.0674,0.3179,-83.049,-4.756,-100.427,0.8008,100702.15
1.0562,-0.1021,0.397,-38.598,-34.573,-96.22,1.1329,100701.62
1.2241,-0.2754,0.7891,27.561,1.037,-28.902,1.4822,100701.0
0.5693,-0.1328,1.3833,31.28,54.695,21.159,1.5018,100701.12
0.9683,-0.3887,0.4331,-55.0,-15.976,-27.927,1.1297,100701.38
0.8188,-0.4414,0.2686,-26.341,27.317,15.549,0.9682,100701.03
0.231,-0.2754,0.7114,-20.0,60.183,10.366,0.7971,100701.64
0.7632,-0.4243,0.2871,-68.902,-15.366,-75.122,0.9192,100702.2
1.062,-0.3682,0.751,-40.61,-8.72,-85.366,1.3518,100702.24
1.209,-0.2993,0.9077,-85.793,-19.024,-77.744,1.5412,100702.19
1.0073,-0.3188,0.458,-140.0,-26.28,-59.756,1.1516,100702.98
0.9512,-0.2295,0.3672,-144.756,-56.89,-58.598,1.0451,100702.59
1.0518,-0.1914,0.623,-144.756,-59.695,-45.183,1.2373,100703.64
0.6191,-0.0215,0.5874,-173.537,-39.817,-15.488,0.8537,100703.38
0.7314,-0.2441,0.3052,-184.756,-35.427,-41.829,0.8293,100704.16
0.73,-0.2788,0.1973,-145.549,6.646,-27.012,0.8059,100702.66
0.4668,-0.3906,0.2866,-58.049,52.317,-60.427,0.6728,100702.48
1.5371,-0.2344,0.9761,56.951,-34.329,-126.951,1.8359,100702.84
1.4917,-0.1401,1.1475,72.805,31.707,-48.963,1.8872,100703.35
1.022,-0.3291,0.5801,34.939,99.878,33.171,1.2203,100702.29
0.6455,-0.1953,0.5151,28.537,78.354,78.354,0.8486,100701.59
0.3789,-0.0044,0.2856,-4.39,33.293,78.537,0.4745,100701.19
0.6636,0.063,0.0029,12.073,-14.329,49.451,0.6666,100701.01
0.9121,0.0137,0.5337,98.659,7.317,52.317,1.0569,100700.98
0.9131,-0.0044,1.1685,116.89,8.78,59.024,1.4829,100701.07
0.8037,-0.0547,0.7393,31.951,-37.134,56.098,1.0934,100701.65
0.4683,-0.0088,0.2817,-18.171,-22.134,75.793,0.5466,100701.45
0.1938,-0.1045,0.1953,-23.293,26.341,69.329,0.2944,100701.18
0.1724,-0.2588,0.436,-15.183,26.524,3.659,0.5355,100701.1
1.0698,-0.2881,0.6309,-36.22,-86.037,-86.646,1.275,100701.42
1.2524,-0.3779,0.4536,-50.61,-62.073,-43.415,1.3846,100702.02
0.9082,-0.3208,0.7061,-30.183,5.366,-0.244,1.1943,100702.58
0.9526,-0.2896,0.7666,-21.585,1.585,-15.366,1.2566,100702.77
0.9136,-0.3486,0.8057,0.0,30.305,-31.707,1.267,100702.34
0.8052,-0.2539,0.769,0.0,25.793,-28.232,1.142,100703.58
0.6484,-0.2173,0.5137,-25.183,13.171,-20.122,0.8553,100703.9
0.5737,-0.1323,0.4062,-38.598,-0.061,-10.061,0.7153,100703.79
0.3457,-0.0483,0.3574,-46.829,24.878,-0.488,0.4996,100703.49
0.4131,-0.1182,0.4468,-37.134,28.476,-32.744,0.6198,100704.45
0.6992,-0.2036,0.6353,-26.707,36.037,-65.0,0.9664,100703.57
0.8984,-0.0405,1.0283,-24.085,25.976,-85.976,1.3661,100704.16
1.624,0.0576,0.5947,-60.732,-46.951,-86.585,1.7305,100703.83
1.5552,-0.1665,0.3169,16.707,16.585,27.866,1.5958,100703.36
0.3809,0.1392,1.689,108.293,81.951,95.488,1.737,100702.37
0.6494,0.0781,1.0659,-25.732,-51.402,-14.085,1.2506,100702.15
0.7637,-0.084,0.2773,-79.695,-68.049,-20.915,0.8168,100702.44
0.3149,0.0107,0.1714,-61.768,-20.854,23.11,0.3587,100702.23
0.4087,-0.002,0.123,-59.268,-15.976,15.0,0.4268,100702.22
0.5029,-0.0581,0.0732,-48.72,-0.183,0.122,0.5115,100702.94
0.6948,-0.3193,0.5742,34.024,23.902,60.488,0.9563,100704.1
0.4927,-0.2598,0.833,44.39,32.805,36.951,1.0021,100703.27
0.3569,-0.1797,0.7402,-9.573,16.463,-8.963,0.8412,100703.12
0.5317,-0.1665,0.2354,-59.817,-26.951,-54.268,0.6049,100703.48
0.7705,-0.0347,0.2607,-44.329,-21.098,-46.646,0.8142,100703.75
0.9126,-0.0732,0.4272,-8.476,7.134,-24.268,1.0103,100703.83
1.1523,-0.1392,0.4756,34.878,3.902,0.915,1.2544,100703.66
0.8818,-0.1631,0.7256,66.524,36.341,27.988,1.1536,100703.17
0.9526,-0.2319,0.5107,65.366,-1.585,19.085,1.1055,100702.8
0.9463,-0.2207,0.4531,116.646,4.512,48.659,1.0721,100702.88
0.8647,-0.0771,1.1777,163.598,33.415,70.305,1.4631,100703.04
1.0181,-0.1934,0.9893,97.012,10.427,52.256,1.4326,100703.05
0.6504,-0.1748,0.5601,40.854,8.232,79.573,0.8759,100703.44
0.1943,-0.0991,0.4829,-6.646,32.073,84.939,0.5299,100703.45
0.3618,-0.3184,0.3667,-51.341,-1.28,-57.744,0.6056,100703.7
1.4697,-0.3135,0.6045,-57.561,-98.11,-108.293,1.6198,100703.98
1.3169,-0.3994,0.6089,-58.232,-35.671,-27.5,1.5048,100703.96
1.0811,-0.3657,0.7188,-60.488,-21.098,16.524,1.3487,100703.94
0.585,-0.3994,0.4971,-69.695,34.329,37.378,0.8653,100703.3
0.5859,-0.5454,0.6904,-25.915,37.622,-22.927,1.0571,100702.59
1.042,-0.3638,1.0596,-5.427,-19.024,-63.415,1.53,100702.32
0.8374,-0.2578,0.3726,-24.512,7.073,-24.878,0.9521,100704.77
1.1904,-0.3892,0.1567,11.89,-40.61,-20.183,1.2622,100704.44
1.1084,-0.3955,0.8091,107.5,21.768,55.61,1.4281,100703.72
0.5508,-0.2593,1.4824,115.366,52.378,68.963,1.6025,100703.83
0.9258,-0.3892,0.9502,28.293,-41.463,16.402,1.3825,100703.27
0.4189,-0.2725,0.6802,-18.841,-13.963,45.61,0.844,100702.12
0.0137,-0.2622,0.1167,-79.695,-0.061,13.963,0.2873,100702.26
0.3853,-0.3657,-0.0801,-73.537,-28.78,-50.427,0.5372,100702.35
0.4404,-0.3047,0.3105,-46.22,-20.793,-68.902,0.6191,100702.31
0.6372,-0.3257,0.3296,-64.39,-35.671,-90.122,0.7879,100702.98
1.2773,-0.3623,0.5747,-57.622,-52.439,-76.22,1.4468,100703.13
0.9839,-0.3218,0.7344,-47.683,21.89,-11.829,1.2692,100703.52
0.8022,-0.6636,0.8521,-13.354,82.073,-21.707,1.3453,100703.53
0.7266,-0.5547,1.3062,-0.061,81.341,-46.524,1.5942,100703.52
0.6851,-0.5063,1.0259,-57.073,63.354,-93.354,1.3335,100703.45
0.9106,-0.3623,0.6787,-91.524,13.902,-122.561,1.1921,100702.86
0.835,-0.1167,0.3452,-117.5,3.293,-92.012,0.911,100702.71
0.7202,-0.1377,0.0107,-111.463,25.305,-66.341,0.7333,100702.8
0.9111,-0.2417,0.3853,-58.78,20.427,-59.39,1.0183,100702.15
0.8184,-0.2485,0.6475,-53.476,3.902,-38.72,1.0727,100702.65
0.6777,-0.1978,0.4351,-74.39,-43.476,-46.768,0.8293,100702.77
1.2705,-0.4438,0.2881,-40.0,-70.122,-52.073,1.3763,100702.51
1.1016,-0.3018,1.0518,21.951,-24.146,32.5,1.5526,100702.3
0.6021,-0.3252,0.6543,-25.793,0.427,60.488,0.9467,100702.73
0.5508,-0.4722,0.3677,-23.963,8.659,46.585,0.8133,100702.82
0.0488,-0.4434,0.7168,-18.476,59.512,23.902,0.8442,100702.07
0.3696,-0.541,0.5957,-69.573,11.037,-74.695,0.8855,100701.71
0.8262,-0.4717,0.6548,-99.634,-16.341,-116.646,1.1549,100702.16
0.7837,-0.3042,0.5601,-145.976,-5.244,-105.793,1.0101,100703.61
0.8896,-0.3179,0.3188,-170.732,-22.195,-105.122,0.9971,100703.12
1.0874,-0.3115,0.5034,-151.463,-13.232,-71.402,1.2381,100702.77
0.4014,-0.5977,0.6694,-125.488,81.159,-30.732,0.9831,100702.27
0.3721,-0.4751,0.915,-124.756,64.024,-93.963,1.0961,100701.88
1.0742,-0.4429,0.6489,-145.488,38.598,-164.939,1.3309,100702.22
1.4375,-0.5366,0.6343,-92.561,59.817,-146.28,1.6603,100702.6
1.106,-0.4126,0.874,-44.329,79.817,-81.524,1.4688,100702.84
0.6899,-0.3198,0.5864,-54.024,71.22,-57.317,0.9603,100702.94
0.7251,-0.2759,0.3433,-52.988,35.366,-60.61,0.8484,100702.85
0.647,-0.2104,0.543,-45.061,24.695,-45.549,0.8704,100701.84
0.6235,-0.1421,0.4429,-72.622,-16.098,-54.573,0.7779,100701.45
0.8481,-0.2231,0.4395,-50.183,-46.463,-44.146,0.9809,100701.14
0.4658,-0.2251,0.9678,-13.415,-9.817,-17.988,1.0974,100701.32
0.7534,-0.2583,0.8291,-38.78,-40.671,-50.915,1.1497,100702.02
0.873,-0.3379,0.6294,-39.085,-22.988,-29.512,1.1281,100701.09
0.4189,-0.3438,0.6426,-39.024,24.939,-6.585,0.8406,100701.72
0.5537,-0.4365,0.397,-59.39,-1.098,-42.317,0.8092,100702.53
0.7246,-0.4199,0.5986,-55.427,0.122,-51.402,1.0294,100702.27
0.8555,-0.3232,0.8389,-83.78,-1.28,-57.561,1.241,100702.97
0.8472,-0.3242,0.6997,-125.854,-15.793,-58.11,1.1456,100702.29
0.8569,-0.1421,0.8257,-141.951,-35.854,-58.659,1.1984,100702.25
0.8022,-0.2188,0.7021,-152.561,-22.622,-52.195,1.0883,100702.94
0.6045,-0.2734,0.6782,-140.854,7.622,-39.878,0.9488,100702.14
0.4419,-0.1528,0.5527,-141.098,22.378,-63.171,0.724,100702.03
0.9048,-0.2441,0.2896,-113.659,3.171,-109.146,0.9809,100702.19
1.2017,-0.3232,0.7129,-32.195,44.939,-86.768,1.4341,100702.05
0.9653,-0.2319,1.1455,4.634,79.756,-47.012,1.5159,100702.35
0.7588,-0.1763,0.8276,-23.293,43.415,-48.598,1.1366,100702.66
0.7944,-0.1772,0.4526,-42.805,6.707,-54.939,0.9314,100701.93
0.8413,-0.1055,0.375,-43.476,-14.634,-44.573,0.9271,100702.23
0.978,-0.04,0.1104,-29.573,-45.976,-24.573,0.985,100702.58
1.0356,-0.1074,0.5527,48.659,-21.524,18.537,1.1788,100701.98
0.8794,-0.0547,1.3193,64.939,-0.244,46.89,1.5865,100701.01
0.7505,-0.0923,0.7803,-27.927,-35.488,42.744,1.0865,100701.51
0.5249,-0.0996,0.1987,-62.256,-21.768,55.732,0.57,100701.76
0.2896,-0.0869,0.2422,-47.012,27.561,54.39,0.3874,100702.06
0.4575,-0.2759,0.1323,-45.549,21.22,11.463,0.5504,100702.27
0.6235,-0.4038,0.3906,-25.244,-0.183,-17.988,0.8393,100702.45
0.916,-0.3384,0.7896,-33.902,-18.049,-37.561,1.2558,100702.6
1.0913,-0.2075,0.6919,-70.976,-37.073,-31.159,1.3087,100703.32
0.7695,-0.2642,0.4365,-72.134,-9.756,-1.159,0.9233,100703.48
0.498,-0.2603,0.5679,-47.866,28.049,1.402,0.7989,100704.12
0.6274,-0.2979,0.5518,-38.902,26.768,-47.927,0.887,100703.97
1.2173,-0.2886,0.6089,-6.098,-7.5,-77.012,1.3913,100703.15
1.0342,-0.1797,0.7207,23.598,37.012,-27.866,1.2733,100703.11
0.7593,-0.2085,0.5298,29.207,49.146,-2.378,0.949,100702.61
0.8594,-0.1997,0.6357,28.78,20.183,1.768,1.0875,100702.34
0.7222,-0.1025,0.6694,-13.171,-1.037,12.622,0.99,100703.25
0.9189,0.0312,0.186,-46.341,-52.561,6.951,0.9381,100702.95
1.2261,-0.0752,0.2866,62.317,0.976,52.5,1.2614,100702.61
0.7759,-0.1406,1.4404,41.707,19.573,52.012,1.6421,100701.85
0.6885,-0.1978,0.3677,-62.195,-29.634,43.78,0.8052,100702.77
0.2217,-0.0923,0.2856,-72.866,-3.78,59.512,0.3732,100702.94
0.3433,-0.1641,0.0645,-78.963,-30.061,25.61,0.3859,100701.92
0.5952,-0.1436,0.2192,-54.512,-39.329,-10.976,0.6503,100701.7
0.9595,-0.1553,0.2407,-43.293,-56.159,-24.634,1.0013,100701.05
0.7593,-0.2012,0.3711,-0.488,-24.451,9.39,0.8687,100701.92
0.5923,-0.1826,0.8823,21.159,3.841,-5.244,1.0783,100702.47
0.8872,-0.1577,0.686,-1.768,-15.122,-60.427,1.1325,100702.37
1.0234,-0.1484,0.644,28.354,-10.183,-61.646,1.2183,100702.79
0.9546,-0.0542,0.8311,46.646,18.232,-26.037,1.2668,100702.84
0.812,-0.0811,0.5806,14.695,22.988,-9.024,1.0015,100703.13
0.8589,-0.0654,0.3916,-0.61,-4.573,-2.012,0.9462,100702.01
0.7002,0.0151,0.4414,-0.915,13.354,21.646,0.8279,100702.01
0.6631,-0.1089,0.3965,5.061,16.402,12.683,0.7802,100702.12
0.978,-0.1289,0.5386,32.012,-18.293,-6.098,1.1239,100703.3
1.1206,-0.1538,0.3564,72.683,-12.744,39.207,1.1859,100703.52
1.0713,-0.2031,0.5288,141.22,3.232,81.829,1.2118,100702.98
0.5059,-0.1323,1.4365,186.159,48.476,111.341,1.5287,100702.62
0.5054,-0.0679,1.1841,94.39,-26.829,32.866,1.2892,100702.78
1.1758,-0.208,0.4365,31.341,-78.171,-1.585,1.2713,100701.93
0.627,-0.0566,0.5688,24.146,3.659,78.171,0.8484,100701.67
0.2202,-0.0732,0.1514,-33.659,7.5,77.866,0.2771,100700.98
0.2319,-0.1753,-0.0991,-33.171,-8.78,30.793,0.3072,100701.66
0.5591,-0.2163,0.4009,-3.049,-37.927,-38.659,0.7212,100702.18
1.4741,-0.3433,0.3745,-21.585,-79.512,-66.89,1.5592,100701.38
1.3076,-0.4355,0.6792,6.951,-9.573,12.988,1.5365,100701.87
0.9229,-0.3477,0.8926,-4.39,8.232,32.012,1.3301,100701.99
0.9136,-0.4414,0.6245,-21.098,9.451,6.22,1.1914,100701.98
0.7437,-0.3599,0.8379,-1.402,38.049,3.11,1.1767,100701.36
0.6875,-0.2891,0.6494,-23.476,29.939,-21.707,0.9889,100702.1
0.855,-0.2324,0.3735,-37.622,-4.817,-34.695,0.9615,100701.57
0.7422,-0.0708,0.2559,-42.988,-1.28,0.366,0.7882,100700.66
0.5918,-0.0288,0.1787,-38.415,32.866,26.159,0.6189,100700.39
0.7686,-0.0825,0.4888,-6.585,37.622,25.854,0.9145,100700.27
0.7295,-0.1689,0.6279,-0.793,45.915,31.89,0.9772,100702.03
0.6562,-0.2173,0.623,3.963,18.049,12.134,0.9306,100701.18
1.1826,-0.1855,0.4805,25.183,-39.634,-12.805,1.2899,100700.14
1.0889,-0.3149,0.7324,103.415,17.805,57.927,1.3495,100700.23
0.4082,-0.1138,1.4912,122.012,34.024,82.134,1.5503,100700.54
0.9253,-0.1709,0.7129,30.915,-68.537,5.0,1.1805,100700.77
0.8193,-0.1831,0.3071,34.878,-38.537,37.378,0.894,100700.18
0.2627,-0.1636,0.4087,43.963,0.915,64.085,0.5126,100700.61
0.5737,-0.2661,0.3486,15.244,-34.939,16.463,0.7222,100701.18
0.6616,-0.375,0.4746,0.671,-22.866,10.427,0.8964,100701.23
0.6729,-0.4321,0.6943,-19.634,-32.073,0.183,1.059,100701.25
0.7979,-0.3979,0.8022,-65.0,-52.012,-21.524,1.1994,100701.29
0.8398,-0.4629,0.1729,-90.732,-40.793,-30.549,0.9744,100700.56
0.9668,-0.7266,0.582,18.659,13.232,-35.671,1.3421,100700.37
0.9663,-0.5127,1.4775,62.195,38.72,-38.049,1.8384,100700.11
0.8945,-0.4531,0.9336,-16.22,4.939,-50.976,1.3701,100699.93
0.6943,-0.3247,0.4131,-53.659,-4.451,-33.171,0.8707,100699.9
0.3262,-0.1958,0.2808,-68.841,29.39,-9.817,0.4728,100700.12
0.3599,-0.2495,0.123,-84.573,26.89,-29.817,0.4549,100700.52
0.54,-0.2803,0.3945,-70.976,23.354,-56.463,0.7252,100700.44
0.6968,-0.2178,0.5366,-76.89,1.89,-78.72,0.906,100700.72
0.7808,-0.2031,0.4028,-79.146,-29.451,-97.073,0.9017,100701.19
1.1289,-0.1509,0.062,-68.232,-62.683,-104.085,1.1406,100700.7
1.5029,-0.6118,0.084,30.244,10.061,-48.476,1.6249,100699.95
0.7231,-0.3408,1.6733,110.488,90.244,53.963,1.8545,100700.59
0.3125,-0.1904,0.9438,-55.61,34.268,1.707,1.0123,100701.3
0.7192,-0.5122,-0.0923,-101.89,-18.476,-59.756,0.8878,100701.84
0.3926,-0.3462,0.6294,-37.866,20.244,-53.963,0.8186,100702.0
0.7544,-0.3311,0.4487,-85.793,-17.439,-102.866,0.9381,100702.34
1.0986,-0.4194,0.3198,-79.512,-16.098,-94.39,1.2187,100702.62
0.874,-0.2788,0.7832,-72.134,15.122,-55.488,1.2063,100702.91
0.8179,-0.3828,0.3359,-125.488,9.146,-56.768,0.9635,100703.35
0.9658,-0.3467,0.6479,-102.073,-7.988,-55.854,1.2136,100702.62
1.0806,-0.1904,0.8511,-122.317,-7.378,-49.39,1.3886,100702.45
0.8589,-0.4355,0.5542,-105.183,44.756,-41.341,1.1111,100702.07
0.7754,-0.2798,1.479,-56.707,40.793,-71.829,1.6932,100702.52
0.8091,-0.1689,0.8745,-154.634,-3.415,-105.549,1.2033,100702.83
0.769,-0.1216,0.1895,-181.463,-14.268,-97.744,0.8013,100702.12
0.6133,-0.0576,0.2651,-141.22,18.963,-75.976,0.6706,100702.79
0.6377,-0.0566,0.3755,-120.732,29.878,-82.439,0.7422,100702.83
0.7422,-0.126,0.3579,-109.39,11.646,-101.341,0.8336,100702.97
0.9756,-0.1475,0.3931,-87.805,-28.171,-108.598,1.0621,100703.05
1.1299,-0.0967,0.5093,-69.573,-53.72,-86.159,1.2431,100703.02
1.0752,-0.188,0.1631,-54.573,-55.732,-39.756,1.1036,100701.39
1.0444,-0.4844,0.7993,36.829,-5.488,14.451,1.4016,100701.88
0.5825,-0.1733,1.4917,5.183,11.098,39.146,1.6108,100701.85
0.8369,-0.3853,0.1792,-106.22,-39.695,-12.805,0.9386,100700.98
0.6855,-0.437,0.2231,-49.085,6.646,19.573,0.8431,100700.64
0.1782,-0.3667,0.5513,-41.341,45.976,8.415,0.6857,100700.49
0.6948,-0.4746,0.2563,-81.829,-17.683,-71.829,0.8796,100700.75
0.8623,-0.4775,0.519,-83.171,7.134,-69.268,1.114,100700.34
0.8618,-0.4385,0.7388,-116.646,18.902,-65.0,1.2169,100701.24
0.9888,-0.356,0.645,-166.707,-13.537,-70.183,1.2331,100701.7
1.0718,-0.1841,0.5752,-197.317,-20.488,-63.902,1.2302,100701.04
1.0723,-0.2461,0.5,-197.988,-11.524,-37.317,1.2084,100701.02
0.5029,-0.5386,0.4502,-143.659,71.646,-75.732,0.8635,100700.52
1.4531,-0.501,1.0698,-60.061,19.451,-137.683,1.8727,100700.91
1.2505,-0.1768,1.167,-61.463,47.134,-86.463,1.7195,100701.28
0.8564,-0.1997,0.2549,-94.817,52.012,-58.78,0.9156,100701.6
0.772,-0.1538,0.2417,-50.793,39.695,-39.573,0.8234,100702.17
0.8164,-0.0386,0.3784,-45.427,22.866,-20.427,0.9007,100702.48
0.7979,-0.0557,0.0972,-58.598,-5.793,3.537,0.8057,100701.75
0.6831,-0.0747,0.2466,-1.829,-14.817,27.622,0.7301,100701.94
0.5386,-0.1377,0.9341,56.951,2.805,20.0,1.087,100701.55
0.9766,-0.1328,0.835,32.683,-49.634,-28.537,1.2917,100701.27
1.1831,-0.1611,0.3867,22.256,-43.354,2.988,1.2551,100701.32
0.3823,-0.1606,0.6377,41.463,59.39,79.573,0.7607,100702.2
0.1685,-0.2939,0.626,-2.683,45.122,32.439,0.7118,100702.85
0.6387,-0.4648,0.3828,-38.963,-12.805,-38.537,0.8778,100702.12
0.8823,-0.4434,0.645,-41.951,-24.878,-59.695,1.1795,100701.84
1.1885,-0.4673,0.5342,-68.11,-44.451,-55.915,1.3843,100702.36
1.0356,-0.3569,0.6187,-66.951,-8.963,-12.378,1.2581,100703.02
0.6353,-0.3101,0.6475,-52.439,39.695,7.5,0.9586,100703.14
0.7632,-0.3281,1.1104,-15.366,24.268,-45.732,1.3867,100702.99
0.894,-0.0942,1.0845,-61.037,-14.024,-62.988,1.4086,100702.63
0.6694,-0.0083,0.3828,-125.244,-13.841,-36.646,0.7712,100701.86
0.5508,0.0347,0.147,-112.134,2.683,-18.902,0.5711,100701.55
0.6055,0.1353,0.4321,-76.89,38.232,-14.268,0.7561,100701.05
0.5415,0.064,0.3276,-65.0,51.707,-25.671,0.6361,100702.39
0.7505,-0.0986,0.293,-14.695,37.561,-52.5,0.8117,100702.77
1.0137,-0.106,0.7842,50.488,31.098,-54.695,1.286,100703.27
1.0244,-0.1011,0.7344,67.683,26.707,-26.89,1.2645,100703.78
0.9331,-0.1543,0.8711,100.427,47.561,11.402,1.2858,100703.2
0.772,-0.0435,1.3574,91.768,41.951,20.671,1.5622,100703.12
0.853,-0.0981,0.8472,9.207,-21.829,-6.646,1.2062,100702.77
0.8555,-0.0889,0.4341,-20.854,-36.829,11.768,0.9634,100703.98
0.5063,-0.0347,0.2583,-34.024,-13.659,44.451,0.5695,100703.54
0.5376,-0.0898,-0.0361,-37.866,-23.354,38.171,0.5462,100704.05
0.5786,-0.165,0.1826,-2.5,-4.207,26.402,0.6288,100703.57
0.9775,-0.1943,0.542,10.549,-46.524,-9.39,1.1345,100702.59
1.3862,-0.1782,0.6016,4.939,-61.159,0.488,1.5216,100702.85
1.2788,-0.1323,0.7964,10.305,-17.256,46.22,1.5123,100702.43
0.9844,-0.0415,0.6753,-9.817,-2.5,61.22,1.1945,100703.09
0.8091,-0.2656,0.4941,5.732,20.427,50.671,0.9846,100702.36
0.5869,-0.2622,0.8936,36.22,41.89,40.0,1.1008,100702.3
0.5176,-0.2681,0.8047,1.098,18.049,3.537,0.9936,100702.73
0.7974,-0.2007,0.5918,-36.585,-24.451,-25.061,1.0131,100703.2
0.6089,-0.0469,0.3774,-65.244,6.707,-1.22,0.7179,100703.09
0.4917,-0.0552,0.2095,-61.524,18.049,-6.646,0.5373,100703.57
0.8013,-0.0747,0.4717,-24.451,1.037,-20.244,0.9328,100702.49
0.4932,-0.0728,0.5791,-6.707,30.793,-7.5,0.7641,100702.02
0.8042,-0.1021,0.5503,15.244,-34.695,-54.268,0.9798,100702.26
1.4849,-0.0928,0.5186,60.854,-52.073,-33.293,1.5755,100701.59
0.8438,-0.0483,1.021,131.463,70.244,77.317,1.3254,100702.41
0.4912,0.0186,1.2905,106.28,40.854,60.732,1.381,100702.94
1.1333,-0.1118,0.6699,39.817,-54.207,-2.195,1.3212,100703.18
0.8232,-0.0298,0.5327,31.646,-17.744,47.134,0.981,100702.4
0.4326,-0.0005,0.1914,-5.183,-14.878,59.573,0.4731,100702.64
0.668,-0.0552,-0.1255,-8.902,-42.988,39.207,0.6819,100702.58
0.6826,-0.1274,0.2476,30.183,9.817,51.037,0.7372,100703.51
0.9248,-0.3091,0.6782,30.61,-12.378,31.402,1.1878,100704.45
1.1621,-0.4175,0.7935,4.39,-29.146,30.671,1.4678,100703.94
0.9126,-0.3872,0.8237,-20.305,9.756,45.0,1.2889,100704.14
0.7397,-0.3262,0.5435,-41.098,13.598,23.232,0.9741,100704.08
0.6499,-0.4395,0.626,-4.573,34.268,-4.146,1.0037,100704.03
0.7036,-0.396,0.9751,21.646,40.732,-32.134,1.266,100703.76
0.8008,-0.3965,0.7627,-3.232,17.073,-46.28,1.1748,100703.79
0.7139,-0.2671,0.6187,-37.256,2.866,-32.622,0.9817,100703.1
0.4927,-0.105,0.2217,-86.463,5.366,-15.366,0.5504,100702.48
0.6084,-0.1274,0.1006,-72.195,1.585,-20.732,0.6297,100702.12
0.8608,-0.1724,0.6694,-22.378,11.829,-11.585,1.104,100702.83
0.6123,-0.1865,0.7529,-18.415,22.073,-0.061,0.9882,100703.6
1.0264,-0.1636,0.6411,-0.549,-50.915,-34.878,1.2212,100703.45
1.4385,-0.1445,0.4185,50.671,-34.695,17.378,1.5051,100703.84
0.5015,-0.0957,0.915,141.098,83.415,125.0,1.0478,100703.75
0.418,-0.0513,1.2563,119.573,25.366,67.378,1.325,100703.55
1.1768,-0.1812,0.6011,52.683,-46.159,9.878,1.3337,100703.55
0.5181,-0.1226,0.5342,51.524,14.634,73.293,0.7542,100703.7
-0.0166,-0.1543,0.3872,6.646,18.232,52.805,0.4171,100703.05
0.3159,-0.23,0.1567,-30.854,-26.951,-20.061,0.421,100702.81
1.269,-0.4316,0.7524,-25.671,-43.537,-69.512,1.5372,100703.24
1.0269,-0.4019,0.8169,-33.171,-9.634,-27.5,1.3723,100702.49
1.0303,-0.2549,0.623,-59.512,-34.512,-25.854,1.2307,100703.99
0.9741,-0.3003,0.355,-43.902,3.902,-9.573,1.0794,100703.38
0.7886,-0.3174,0.7939,18.476,37.866,-1.707,1.1632,100703.9
0.7949,-0.2695,1.0195,9.634,28.11,-19.634,1.3206,100703.69
0.7207,-0.2305,0.6782,-42.134,10.976,-30.061,1.0161,100703.52
0.6006,-0.0952,0.3672,-72.439,-1.22,-28.78,0.7103,100703.89
0.5083,-0.082,0.2222,-73.232,8.78,-35.915,0.5608,100704.43
0.8472,-0.1572,0.4985,-43.72,-8.11,-54.268,0.9955,100703.84
0.7856,-0.2061,0.6802,-43.049,10.305,-42.134,1.0594,100702.89
0.8311,-0.2725,0.4985,-47.073,-20.0,-57.5,1.0067,100703.44
1.3086,-0.2612,0.3447,-12.195,-53.841,-44.634,1.3782,100703.58
0.9604,-0.2812,0.8164,52.927,25.0,37.134,1.2915,100704.44
1.04,-0.2056,0.6816,-15.915,-43.598,2.317,1.2604,100704.45
0.4878,-0.1826,0.4253,-26.159,12.988,43.476,0.6724,100703.98
0.1064,-0.2686,0.1978,-42.256,24.634,13.537,0.3501,100704.51
0.5293,-0.4121,0.1699,-44.024,-21.098,-48.537,0.692,100704.26
0.6333,-0.4268,0.5415,-39.573,-2.744,-50.671,0.9362,100703.75
0.5454,-0.3755,0.6069,-84.085,-4.329,-63.049,0.8982,100704.09
0.8428,-0.3481,0.563,-122.561,-51.463,-101.524,1.0716,100704.22
1.2383,-0.2383,0.4155,-141.707,-62.5,-92.012,1.3277,100703.83
0.9917,-0.6733,0.394,-72.866,32.073,-38.598,1.2618,100704.03
0.8789,-0.5283,1.0864,-41.707,42.988,-82.012,1.494,100704.69
1.2095,-0.457,0.8804,-46.89,17.561,-88.171,1.5642,100704.55
0.5762,-0.2642,0.7578,-63.963,67.195,-41.524,0.9879,100704.09
0.5317,-0.1875,0.3394,-99.146,37.744,-64.085,0.6581,100703.98
0.7788,-0.1826,0.3286,-91.341,12.439,-69.085,0.8648,100703.69
0.6562,-0.1465,0.4951,-90.976,25.732,-44.817,0.835,100703.42
0.5366,-0.1665,0.5137,-106.646,1.89,-54.451,0.7613,100703.59
0.855,-0.106,0.2734,-118.78,-62.378,-81.22,0.9039,100702.88
1.272,-0.3862,0.3408,-39.634,-43.78,-44.939,1.3723,100702.2
0.7373,-0.2212,1.3608,39.146,30.0,29.146,1.5635,100701.84
0.5254,-0.2661,0.708,-36.098,-4.207,7.622,0.9209,100702.16
0.4536,-0.436,0.2324,-25.183,-6.28,-6.768,0.6708,100702.16
0.2671,-0.3364,0.7935,14.146,23.659,-25.793,0.9023,100703.02
0.6099,-0.3916,0.6934,-35.488,1.402,-65.0,1.003,100704.28
0.5635,-0.4517,0.6255,-57.988,32.927,-59.512,0.9554,100704.74
0.6406,-0.3574,0.8823,-85.732,38.354,-81.28,1.1475,100705.2
0.9873,-0.3887,0.7334,-132.561,5.915,-106.402,1.2898,100705.3
1.0103,-0.3203,0.7998,-149.695,-0.061,-93.841,1.3277,100705.12
0.959,-0.1787,0.6323,-188.049,-12.927,-84.39,1.1625,100705.73
0.8428,-0.2153,0.3188,-196.707,-9.573,-65.427,0.9264,100704.84
0.7402,-0.3149,0.6021,-158.476,18.72,-51.463,1.0048,100705.3
0.6079,-0.292,0.7148,-152.805,54.939,-46.829,0.9828,100704.88
0.4824,-0.3447,0.5938,-129.268,80.0,-85.366,0.8391,100704.2
0.9204,-0.3481,0.9863,-59.39,55.915,-137.195,1.3933,100704.68
0.9971,-0.2612,1.3872,-34.573,71.402,-134.268,1.7282,100705.16
0.7788,-0.1343,0.8916,-77.012,51.951,-131.829,1.1914,100706.03
1.0005,-0.0894,0.375,-90.854,2.988,-126.159,1.0722,100705.18
0.8501,-0.0342,0.4009,-75.366,17.439,-76.951,0.9405,100704.29
0.6582,-0.0674,0.1484,-77.5,-15.732,-53.963,0.6781,100704.17
0.7935,-0.1812,0.165,-30.0,-67.378,-46.524,0.8304,100704.05
0.9009,-0.188,0.8379,34.207,-63.963,-23.78,1.2446,100703.62
1.0137,-0.1113,1.0239,19.878,-50.061,4.085,1.4451,100702.9
0.7075,-0.1313,0.5518,-19.512,-10.0,46.341,0.9068,100703.19
0.29,-0.2051,0.4858,-13.78,47.256,65.976,0.6018,100702.79
0.2612,-0.2734,0.5688,-29.085,48.841,19.756,0.6831,100703.26
0.6538,-0.4077,0.4497,-53.354,17.988,-37.683,0.8922,100704.81
0.9429,-0.2598,0.8428,-64.024,-27.012,-61.159,1.291,100705.04
1.084,-0.2583,0.6138,-121.037,-55.061,-53.841,1.2722,100704.66
0.9302,-0.2959,0.2959,-118.598,-34.268,-23.963,1.02,100703.7
0.7607,-0.5371,0.5962,-38.049,26.28,-10.915,1.1057,100703.58
0.6274,-0.4395,1.3403,-1.341,45.976,-20.671,1.5438,100704.45
0.4824,-0.2705,0.853,-73.902,17.378,-60.244,1.0166,100704.59
0.8022,-0.2974,0.3989,-78.841,-10.0,-84.695,0.944,100705.59
0.6411,-0.1309,0.645,-46.585,34.146,-46.707,0.9188,100705.48
0.4937,-0.1123,0.4785,-54.878,58.963,-35.061,0.6966,100705.49
0.5991,-0.1455,0.564,-28.963,38.171,-44.146,0.8356,100705.3
0.6646,-0.1528,0.8599,-18.11,23.293,-42.744,1.0974,100705.12
0.6787,-0.1489,0.6782,-41.646,0.366,-48.476,0.971,100705.23
1.1372,-0.2173,0.4414,-19.39,-34.756,-51.159,1.2391,100704.63
1.1797,-0.2251,0.9043,64.451,11.768,12.561,1.5034,100704.73
0.7925,-0.0337,1.3506,64.268,34.146,51.585,1.5663,100704.72
0.8926,-0.1016,0.605,-10.976,-17.683,46.22,1.0831,100704.33
0.6123,-0.0615,0.4448,-5.976,4.634,84.634,0.7593,100703.8
0.2065,-0.0459,0.4707,-24.451,17.927,79.146,0.5161,100703.95
0.4165,-0.188,0.126,-51.524,-15.549,25.122,0.474,100703.88
0.5732,-0.2681,0.3789,-21.646,-15.549,-5.732,0.7376,100703.93
1.0322,-0.2812,0.689,-25.671,-50.366,-38.415,1.2725,100703.59
1.2793,-0.3901,0.5625,-40.305,-43.171,-19.451,1.4509,100704.09
0.9458,-0.2822,0.8037,-25.854,-10.366,16.463,1.2728,100703.34
0.7114,-0.2715,0.6416,-41.585,-4.024,-3.963,0.9957,100703.65
0.8286,-0.3628,0.6831,-10.488,-4.329,-33.049,1.1335,100703.88
0.7046,-0.2666,0.8013,2.5,7.744,-30.732,1.0998,100704.55
0.6406,-0.2705,0.4805,-23.902,4.817,-28.293,0.8452,100704.07
0.5215,-0.1636,0.3784,-35.732,7.439,-13.049,0.6648,100703.48
0.4087,-0.0806,0.2109,-45.183,25.732,-10.244,0.4669,100703.84
0.6816,-0.1167,0.4219,-10.244,26.585,-23.354,0.8101,100703.88
0.7383,-0.1392,0.8555,16.037,29.695,-19.878,1.1385,100702.93
0.728,-0.1509,0.936,-1.341,16.707,-43.415,1.1954,100702.35
1.5332,-0.1602,0.6001,-2.744,-52.927,-66.707,1.6542,100703.09
1.3774,-0.2109,0.7676,75.732,22.561,32.683,1.5909,100703.06
0.7119,0.0083,1.5928,98.049,53.78,76.22,1.7447,100703.53
1.063,-0.002,0.7368,-13.78,-57.439,28.902,1.2934,100703.5
0.7178,0.0679,0.2495,-20.244,-49.695,71.768,0.7629,100702.86
0.1978,0.1572,0.3193,-10.915,-23.537,84.024,0.4072,100702.12
0.3887,0.1353,0.1055,-27.744,-70.427,38.354,0.4248,100702.56
0.5464,0.061,0.0029,-5.671,-45.244,27.012,0.5498,100703.49
0.5669,-0.0713,0.4155,37.866,-0.061,29.451,0.7065,100704.23
0.647,-0.2222,0.7402,39.146,3.171,16.341,1.0079,100703.88
0.7964,-0.3774,0.8462,24.695,4.329,-7.256,1.2218,100702.77
0.9702,-0.3828,0.5347,12.439,-13.598,-17.134,1.1721,100702.42
0.9473,-0.4912,0.5532,56.28,27.439,-2.744,1.2019,100703.15
1.1509,-0.3301,0.8008,53.354,7.378,0.793,1.4404,100703.96
0.9209,-0.1997,0.5981,20.915,6.707,32.744,1.1161,100704.05
0.4424,-0.02,0.3442,-21.28,20.061,47.012,0.5609,100703.27
0.4521,-0.0884,0.0835,-27.134,-1.89,10.549,0.4682,100703.66
0.7754,-0.0967,0.5586,16.159,-15.732,-10.0,0.9605,100702.85
0.6812,-0.0928,0.6982,12.195,0.671,-8.963,0.9799,100702.85
0.9189,-0.167,0.5527,23.232,-35.305,-39.878,1.0853,100703.09
1.5454,-0.1626,0.6387,68.171,-55.488,-20.244,1.6801,100703.27
1.1206,-0.1997,0.7446,113.476,38.78,87.988,1.3602,100703.43
0.48,-0.1025,0.9839,124.939,57.073,114.573,1.0995,100703.41
0.8062,-0.0449,0.8179,93.902,-30.061,49.756,1.1493,100703.03
0.8682,-0.0156,0.6069,68.72,-39.512,52.805,1.0594,100703.2
0.4482,-0.0103,0.5093,42.378,-0.732,85.0,0.6785,100703.09
0.2036,-0.1025,0.4263,10.122,3.537,68.72,0.4834,100702.86
0.2891,-0.2554,0.2456,-12.195,-23.72,26.159,0.4573,100702.7
0.5195,-0.3701,0.2979,-5.671,-24.146,-2.317,0.704,100702.78
0.7739,-0.4482,0.4673,3.232,-11.646,-15.732,1.0091,100702.52
1.1265,-0.4512,0.7329,12.134,-7.744,-11.829,1.4176,100703.52
0.8057,-0.3838,0.7236,-38.11,38.902,17.195,1.1489,100703.2
0.8521,-0.4688,0.9482,-6.402,23.537,-24.024,1.3583,100702.71
0.8364,-0.3726,1.2441,-6.951,18.902,-39.817,1.5448,100703.41
0.6162,-0.3403,0.832,-60.0,18.537,-47.988,1.0899,100702.8
0.6323,-0.2148,0.5386,-87.744,-12.561,-59.939,0.8579,100702.62
0.6143,-0.0898,0.2646,-110.488,-14.451,-45.915,0.6749,100702.38
0.5249,-0.0615,0.0767,-103.049,8.537,-31.098,0.534,100702.66
0.7173,-0.1191,0.3105,-58.293,15.61,-31.402,0.7907,100702.27
0.6792,-0.145,0.498,-29.085,25.488,-14.207,0.8546,100702.45
0.4741,-0.1265,0.5425,-2.805,5.0,-28.293,0.7315,100702.32
1.1899,-0.1763,0.4692,38.049,-68.537,-56.402,1.2912,100702.2
0.9629,-0.3047,0.8359,119.756,22.622,37.683,1.311,100701.77
-0.0391,-0.1523,1.5376,125.549,63.171,56.646,1.5456,100702.38
0.6938,-0.2051,1.0029,19.329,-82.317,-74.939,1.2367,100701.73
1.084,-0.1621,0.7334,-24.878,-97.744,-84.939,1.3188,100701.71
0.8945,-0.105,0.3423,-69.817,-59.146,-36.585,0.9635,100701.48
0.6641,-0.1558,-0.2036,-91.646,-42.134,-9.39,0.7118,100702.18
0.5605,-0.1758,-0.1348,-52.256,-8.598,-3.963,0.6027,100702.23
0.7861,-0.1392,0.3154,-25.305,-0.183,-24.939,0.8584,100702.92
0.9595,-0.1396,0.4668,-40.549,-3.902,-38.293,1.0761,100702.38
1.061,-0.1328,0.4624,-51.524,-18.476,-49.512,1.165,100703.29
1.2866,-0.2388,0.4482,-61.768,-22.012,-51.768,1.3832,100702.65
1.0488,-0.2754,0.3252,-74.756,5.793,-24.878,1.1321,100703.14
0.8115,-0.2388,0.5303,-71.28,-7.683,-30.854,0.9984,100702.48
0.5601,-0.231,0.3955,-84.573,24.024,-45.854,0.7235,100702.53
1.1479,-0.2466,0.8833,-40.732,14.512,-87.439,1.4693,100702.54
1.3193,-0.2637,0.8687,-42.378,53.354,-86.159,1.6015,100702.67
1.4541,-0.1924,0.6523,-38.72,41.28,-70.793,1.6053,100702.89
1.2979,-0.1504,0.1519,-48.841,31.585,-14.268,1.3153,100702.46
0.4893,-0.1411,0.0376,-36.341,35.488,27.866,0.5106,100703.25
0.4375,-0.1094,0.394,-32.561,-17.073,-0.122,0.5989,100702.97
0.5522,-0.0967,0.4443,-74.817,-58.293,-19.512,0.7154,100702.88
0.7568,-0.3921,-0.0459,-56.585,-25.793,-16.159,0.8536,100702.32
1.1987,-0.4922,1.2676,79.146,10.061,3.598,1.8127,100702.14
1.3242,-0.2402,1.7949,31.341,11.098,32.073,2.2434,100702.84
0.6177,-0.3994,0.646,-73.171,44.695,71.22,0.979,100702.39
-0.2104,-0.3101,0.7002,-72.866,74.878,50.0,0.7942,100701.2
0.1484,-0.2021,0.4902,-132.256,-3.049,-60.244,0.5507,100702.16
0.543,-0.23,0.189,-161.159,-11.524,-99.573,0.6192,100701.38
0.604,-0.1401,0.4268,-157.073,17.317,-97.073,0.7527,100702.4
0.7573,-0.2759,0.292,-177.622,19.817,-103.293,0.8573,100702.07
1.0112,-0.3281,0.6235,-165.305,-7.683,-113.293,1.2325,100702.56
1.4995,-0.1953,0.5142,-187.744,-44.878,-106.037,1.5972,100702.67
1.3032,-0.5972,0.3652,-141.463,18.78,-52.073,1.4793,100702.41
0.8696,-0.5317,1.0474,-91.037,57.256,-12.073,1.4615,100702.34
0.2598,-0.4673,0.6724,-142.927,81.341,-42.195,0.859,100702.39
0.7383,-0.438,0.4766,-134.207,18.537,-131.463,0.9818,100701.84
1.1338,-0.2446,0.7168,-105.793,6.037,-128.354,1.3635,100701.8
0.7017,-0.1079,0.3877,-107.012,49.085,-78.902,0.8089,100702.52
0.8286,-0.1001,0.2588,-94.878,29.634,-68.171,0.8738,100702.34
0.688,-0.1548,0.2261,-74.634,45.122,-35.793,0.7405,100701.96
0.6494,-0.2539,0.2871,-54.878,29.207,-33.11,0.7541,100701.68
0.75,-0.416,0.3706,-18.78,-2.134,-37.622,0.9343,100701.3
0.9053,-0.4004,0.9253,30.427,-19.817,-42.561,1.355,100700.91
1.1357,-0.3428,0.9517,11.463,-37.378,-35.793,1.5209,100701.46
0.8872,-0.3633,0.5532,-11.89,14.939,14.268,1.1069,100702.13
0.4297,-0.3154,0.6235,-11.098,56.341,30.183,0.8203,100702.02
0.5586,-0.3506,0.4766,-42.134,26.463,-9.329,0.8137,100702.43
0.6899,-0.3403,0.4507,-50.488,23.476,-26.829,0.8916,100702.74
0.8218,-0.3682,0.6377,-62.134,20.427,-40.488,1.1034,100702.42
0.7104,-0.4141,0.6982,-97.378,28.171,-46.646,1.0788,100702.73
0.8335,-0.377,0.8628,-127.744,-9.756,-83.11,1.2575,100702.72
1.2607,-0.1382,0.7769,-171.098,-63.902,-106.707,1.4873,100702.01
1.2051,-0.3315,0.1953,-180.671,-37.561,-55.122,1.265,100702.31
0.4229,-0.3286,0.4272,-124.451,43.963,4.573,0.6851,100702.28
0.4419,-0.2876,0.4922,-117.012,14.695,-56.28,0.7213,100701.78
1.0615,-0.4131,0.3071,-84.695,-30.854,-103.902,1.1797,100702.02
1.1548,-0.3545,0.9072,-3.293,20.0,-74.573,1.5107,100702.32
0.9341,-0.2065,1.0444,-3.415,29.39,-51.89,1.4163,100702.43
0.6343,-0.1377,0.2856,-14.085,23.78,-28.049,0.7091,100702.52
0.5054,-0.0688,0.2466,-2.134,17.866,-8.049,0.5665,100702.66
0.6699,-0.124,0.0659,5.183,5.854,-2.866,0.6845,100702.68
0.8721,-0.1836,0.5332,57.317,18.293,20.732,1.0385,100703.06
0.8804,-0.1836,1.0884,78.293,20.488,32.866,1.4119,100703.67
1.0186,-0.187,1.0557,42.561,2.805,29.451,1.4788,100702.81
0.6724,-0.1523,0.77,-1.402,35.61,60.732,1.0335,100703.61
0.2227,-0.1084,0.4204,-45.122,50.549,64.573,0.4879,100704.34
0.2729,-0.2192,0.1206,-61.037,39.329,22.866,0.3703,100703.8
0.373,-0.3008,0.457,-36.037,32.866,-36.585,0.6622,100704.01
1.1772,-0.21,0.7314,-54.451,-59.39,-110.427,1.4018,100703.69
1.4912,-0.269,0.4453,-72.561,-56.28,-78.598,1.5794,100703.2
1.0581,-0.1885,0.6284,-24.695,-2.927,-24.329,1.245,100703.55
0.9302,-0.2437,1.0005,4.634,0.61,-25.488,1.3876,100702.84
0.7559,-0.2236,0.8496,-20.854,13.963,-19.207,1.159,100703.4
0.583,-0.2227,0.5015,-36.829,24.878,-20.061,0.8006,100703.09
0.7056,-0.2036,0.4834,-29.329,3.354,-26.098,0.8792,100702.99
0.6621,-0.1074,0.5073,-40.732,11.463,-4.756,0.841,100702.66
0.5742,-0.0928,0.3701,-45.488,35.854,3.354,0.6894,100702.65
0.7437,-0.1743,0.4932,-14.207,27.378,-15.488,0.9092,100703.21
0.8511,-0.1865,0.688,8.963,20.244,-21.402,1.1102,100703.04
0.9785,-0.1641,0.6787,8.598,-28.476,-31.463,1.2021,100703.39
1.3027,-0.1362,0.354,14.634,-62.256,-8.232,1.3568,100703.13
0.8892,-0.0986,0.7524,86.707,35.0,85.915,1.169,100703.08
0.293,-0.0107,1.3135,99.268,60.061,90.732,1.3458,100702.92
0.9229,-0.144,0.9175,40.854,-46.463,10.732,1.3093,100703.99
0.8613,-0.1211,0.8003,23.476,-19.573,47.134,1.182,100704.3
0.1494,-0.0923,0.4697,-13.963,33.963,82.561,0.5015,100704.14
0.1973,-0.1138,0.3301,-32.317,-1.707,33.11,0.401,100704.03
0.54,-0.1416,0.2979,-38.659,-22.195,-4.817,0.6328,100703.95
0.7212,-0.229,0.3428,-30.915,-5.793,-15.549,0.8307,100704.38
1.1514,-0.2827,0.5439,-12.317,-24.329,-14.756,1.3044,100704.93
1.1816,-0.3271,0.8687,2.317,8.537,17.073,1.5026,100703.84
0.9805,-0.2915,0.7935,3.11,11.159,27.683,1.2946,100703.05
0.8608,-0.2798,0.8774,16.341,-6.098,15.976,1.2606,100702.7
0.7012,-0.2656,0.7358,2.012,-7.866,15.671,1.0506,100701.95
0.4238,-0.3198,0.4824,-3.659,19.695,14.512,0.7174,100701.98
0.4497,-0.2944,0.6064,7.561,6.22,-8.902,0.8104,100702.16
0.6211,-0.1938,0.6733,-17.5,-8.171,-19.329,0.9363,100702.38
0.6025,-0.1953,0.3374,-44.39,9.817,-7.256,0.7177,100703.07
0.8384,-0.2056,0.4775,-9.451,7.195,-0.976,0.9865,100702.48
0.8535,-0.2295,0.6929,16.037,31.28,20.793,1.123,100702.9
0.7139,-0.2803,0.6792,26.159,20.488,20.915,1.0244,100702.7
1.0371,-0.3091,0.5688,55.549,-27.622,14.756,1.2226,100702.07
0.6724,-0.1914,1.0288,119.695,1.707,65.0,1.2438,100702.55
0.4424,-0.0542,1.209,95.366,-14.939,40.915,1.2885,100702.4
0.9941,-0.1895,0.7368,40.244,-62.012,5.549,1.2518,100701.72
0.5527,-0.1128,0.7637,27.317,-6.707,65.915,0.9494,100701.93
0.084,-0.1211,0.4727,-22.5,8.537,61.22,0.4951,100702.81
0.4087,-0.1875,0.1724,-42.622,-25.244,6.524,0.4816,100701.99
0.5259,-0.2534,0.3467,-23.476,5.183,-10.366,0.6789,100701.77
0.877,-0.3267,0.5449,-23.232,-9.451,-37.866,1.0829,100701.95
1.2202,-0.3999,0.5957,-32.622,-22.5,-32.561,1.4155,100702.44
1.1611,-0.4116,0.7578,-26.646,-4.146,3.963,1.4464,100702.08
0.9985,-0.3745,0.7515,-20.61,6.159,23.537,1.3046,100702.8
0.7422,-0.48,0.8706,8.232,30.061,30.122,1.2406,100703.72
0.3921,-0.4248,0.9263,9.146,46.768,15.793,1.0919,100703.56
0.3809,-0.3545,0.6997,-11.098,6.829,-37.805,0.872,100703.41
0.7144,-0.2559,0.5757,-27.805,-26.707,-63.72,0.9525,100703.08
0.6958,-0.1611,0.3682,-49.939,10.061,-24.817,0.8035,100702.84
0.5718,-0.1934,0.3364,-38.232,44.512,6.585,0.691,100703.26
0.689,-0.2271,0.6821,-9.268,36.585,10.549,0.9958,100703.71
0.5615,-0.3169,0.7104,-9.085,36.89,6.341,0.9594,100703.32
0.6396,-0.3525,0.6538,1.768,1.707,-27.866,0.9803,100703.75
1.126,-0.4307,0.6313,42.439,-28.659,-26.037,1.3608,100703.11
0.5933,-0.3154,1.0601,94.024,20.976,48.415,1.2551,100703.11
0.3071,-0.1528,0.9893,55.915,10.915,23.415,1.0471,100703.85
0.8799,-0.2368,0.6025,20.427,-36.037,-28.72,1.0924,100702.6
0.7393,-0.1685,0.7603,24.573,-9.878,13.537,1.0737,100702.96
0.2612,-0.165,0.5986,-13.78,19.512,27.805,0.6737,100703.34
0.3794,-0.1753,0.3447,-39.207,-10.305,-14.329,0.5418,100702.91
0.627,-0.2012,0.4946,-32.805,-23.659,-37.988,0.8235,100702.68
0.9175,-0.2988,0.5029,-46.402,-31.28,-51.951,1.0881,100703.79
1.1548,-0.4189,0.4663,-42.744,-38.659,-30.976,1.314,100703.74
0.9731,-0.3735,0.7466,-22.378,-18.049,12.5,1.2822,100703.22
0.7598,-0.3843,0.791,-10.976,5.122,15.244,1.1622,100703.44
0.7925,-0.4331,1.0508,11.28,-4.573,-10.122,1.3855,100702.72
0.7271,-0.3735,0.8472,-15.61,6.22,-11.22,1.1772,100702.08
0.4409,-0.417,0.5059,-25.122,34.207,-7.256,0.7901,100702.45
0.5073,-0.3247,0.5918,-18.415,11.951,-32.927,0.8444,100702.03
0.645,-0.2188,0.4927,-43.902,9.512,-41.159,0.8406,100702.05
0.6328,-0.2417,0.3301,-48.354,29.451,-28.415,0.7535,100702.55
0.6196,-0.27,0.5781,-25.793,34.024,-22.378,0.8894,100702.67
0.7632,-0.3423,0.7236,-24.878,17.5,-29.756,1.106,100702.52
0.8062,-0.3408,0.7334,-26.89,2.073,-31.707,1.1419,100702.28
1.042,-0.478,0.6001,-4.939,-13.293,-23.049,1.294,100702.72
0.8223,-0.4937,0.9194,46.159,0.976,37.805,1.3286,100702.45
0.4106,-0.3262,1.1479,29.573,3.841,41.89,1.2621,100702.34
0.6499,-0.3779,0.5938,-27.744,-32.683,2.622,0.958,100702.96
0.4097,-0.3433,0.4072,-31.22,4.756,20.732,0.6719,100702.73
0.5767,-0.4741,0.3394,-40.915,5.122,-33.902,0.8201,100703.5
0.5742,-0.4512,0.6562,-38.598,7.378,-42.195,0.9818,100703.48
0.5854,-0.3989,0.6567,-76.159,3.232,-60.366,0.966,100703.22
0.5972,-0.4604,0.4854,-99.817,-3.171,-78.78,0.8968,100702.3
0.8188,-0.2783,0.7539,-97.988,-27.561,-100.305,1.1473,100702.84
0.9409,-0.4229,0.3804,-88.841,-6.89,-95.122,1.0995,100702.89
0.9062,-0.6504,0.8735,-10.671,30.244,-57.256,1.4168,100702.3
0.3687,-0.5693,1.0542,-15.854,96.098,-33.232,1.2535,100702.48
0.5293,-0.5981,0.856,-23.11,61.951,-97.256,1.1707,100703.12
0.8481,-0.4385,0.9443,-12.927,27.012,-120.732,1.3429,100702.83
0.7144,-0.3276,0.6768,-34.451,54.451,-95.427,1.0371,100702.98
0.751,-0.2935,0.4336,-41.341,40.305,-78.537,0.9155,100703.63
0.6274,-0.2593,0.543,-43.232,37.622,-56.159,0.8693,100703.52
0.605,-0.2856,0.4692,-67.073,8.415,-56.707,0.8172,100703.88
0.7456,-0.2656,0.5269,-78.78,-31.28,-56.646,0.9508,100703.45
0.7192,-0.5024,0.3242,-68.537,-20.854,-34.817,0.9353,100703.73
0.4336,-0.5679,1.3008,15.366,-6.707,-11.768,1.4841,100703.35
0.4531,-0.272,1.519,-37.683,-52.195,-60.488,1.6083,100703.41
0.979,-0.5498,0.4272,-94.573,-70.183,-78.354,1.2014,100702.98
0.353,-0.5098,0.9644,-24.268,35.61,-7.866,1.1465,100703.6
0.1421,-0.3477,1.0703,-70.183,23.659,-49.695,1.1343,100702.87
0.5068,-0.3906,0.5225,-133.963,-4.634,-113.476,0.8261,100703.51
0.5571,-0.3291,0.6538,-126.22,8.72,-111.524,0.9199,100703.01
0.5962,-0.2749,0.8022,-142.866,22.256,-107.866,1.0366,100703.26
0.6562,-0.3105,0.8042,-163.598,22.622,-107.622,1.0834,100703.56
0.8018,-0.2041,1.0,-172.195,5.061,-106.341,1.2979,100703.43
0.8403,-0.0767,0.8203,-201.463,0.366,-96.89,1.1768,100702.97
0.772,-0.2305,0.5933,-183.963,18.72,-88.78,1.0005,100702.62
0.7593,-0.3345,0.897,-144.207,43.902,-74.512,1.2219,100702.72
0.3682,-0.2407,0.6816,-157.805,75.244,-70.915,0.8112,100703.02
0.646,-0.3716,0.3237,-125.488,39.756,-122.683,0.8125,100703.04
0.9736,-0.3931,0.8203,-35.549,30.61,-128.11,1.3324,100701.81
0.8696,-0.2061,1.0166,-19.512,26.037,-112.073,1.3536,100701.99
1.1328,-0.2651,0.522,-33.78,0.671,-102.744,1.2752,100702.15
1.1108,-0.2642,0.5913,-4.695,44.329,-27.988,1.2858,100702.78
0.3911,-0.1567,0.6479,-17.378,72.927,22.012,0.7729,100702.39
0.6069,-0.1533,0.2246,-55.732,-21.829,-23.598,0.6651,100702.31
1.0879,-0.1348,0.291,-12.5,-55.183,-5.366,1.1342,100702.53
0.6797,-0.1748,0.6924,45.732,22.012,69.817,0.9859,100702.2
0.3701,-0.2871,1.0371,59.939,31.646,66.951,1.138,100701.93
0.4565,-0.251,1.1357,10.244,-16.463,22.134,1.2495,100702.35
0.3228,-0.2505,0.5215,-64.207,-10.915,7.5,0.6625,100701.93
0.3608,-0.2705,0.2734,-67.012,10.061,-7.988,0.5274,100702.73
0.4829,-0.3784,0.4321,-41.463,33.171,-25.976,0.7504,100703.17
0.5854,-0.4961,0.6426,-28.78,14.695,-58.293,1.0009,100702.54
0.9829,-0.5098,0.9438,-28.537,-37.866,-86.768,1.4549,100702.93
1.1543,-0.4883,0.9971,-64.939,-36.768,-69.878,1.6016,100703.57
0.855,-0.3896,0.561,-115.549,-15.305,-33.293,1.0943,100703.23
0.4644,-0.2944,0.3389,-127.317,-0.183,-14.634,0.6459,100702.12
0.2661,-0.1748,0.4048,-124.207,9.878,-32.012,0.515,100702.63
0.6279,-0.25,0.394,-103.963,-6.829,-87.988,0.7823,100703.0
1.1934,-0.3096,0.7646,-36.463,0.244,-102.195,1.4507,100703.78
1.3105,-0.2266,1.2129,12.378,39.939,-67.317,1.8,100704.95
1.0596,-0.2251,0.8066,-8.476,52.622,-41.28,1.3506,100704.98
1.0654,-0.2617,0.2627,-14.939,15.549,-18.171,1.1281,100704.26
0.6675,0.0024,0.5732,1.22,24.085,32.134,0.8799,100703.73
0.5312,0.0195,0.2075,-50.488,-20.854,14.268,0.5707,100703.91
1.0615,-0.0293,-0.0063,-7.195,-60.549,12.622,1.0619,100704.22
0.7979,-0.0527,0.9487,121.463,19.695,82.805,1.2407,100704.27
0.5693,-0.0693,1.5771,130.366,18.415,73.354,1.6782,100703.98
0.5815,-0.1587,1.0952,38.598,-31.402,33.72,1.2501,100703.98
0.1748,-0.0112,0.6597,-31.829,-18.902,31.768,0.6825,100704.45
0.1816,-0.0039,0.0928,-77.988,-9.756,-0.854,0.204,100704.22
0.3057,-0.1372,-0.125,-53.537,20.61,-19.024,0.3576,100704.3
0.4941,-0.2334,0.4443,-6.89,31.951,-51.037,0.7043,100704.22
1.3804,-0.3618,0.6162,-24.817,-33.171,-87.744,1.5544,100703.92
1.5542,-0.3721,0.8193,-19.451,-21.341,-35.793,1.7959,100703.92
1.3145,-0.1421,0.7959,-21.341,-4.329,18.232,1.5432,100704.3
0.8052,-0.1807,0.6328,-3.841,27.683,40.732,1.0399,100704.21
0.6865,-0.2295,0.6069,31.707,5.915,31.524,0.9446,100702.94
0.5884,-0.228,0.5967,51.098,2.439,31.463,0.8685,100703.69
0.5327,-0.1621,0.7676,50.549,7.561,27.439,0.9483,100703.02
0.6304,-0.0332,0.5864,4.817,8.476,15.915,0.8616,100703.76
0.709,-0.0645,0.2197,-1.28,20.366,15.183,0.745,100703.44
0.7783,-0.1177,0.626,46.768,39.024,27.927,1.0057,100704.78
0.5215,-0.1895,0.9897,35.549,54.573,24.878,1.1347,100704.81
0.7881,-0.2148,0.6602,2.012,-25.183,-27.439,1.0503,100704.96
1.0679,-0.2065,0.8633,59.329,-39.573,-7.927,1.3886,100704.71
0.5874,-0.0034,1.3364,86.463,4.39,31.951,1.4598,100704.66
0.9238,-0.0537,0.7954,40.976,-59.512,-6.463,1.2203,100704.27
0.9565,-0.124,0.541,47.439,-41.341,36.646,1.1059,100703.95
0.3184,-0.0332,0.5664,40.427,13.598,91.829,0.6506,100704.07
0.3154,-0.0786,0.3115,2.927,-18.293,54.878,0.4502,100704.16
0.4873,-0.0508,0.4619,-4.024,-28.78,15.061,0.6734,100703.25
0.6724,-0.2271,0.3447,-27.805,-31.22,-22.622,0.789,100704.14
1.126,-0.2637,0.5054,-15.732,-51.829,-33.598,1.262,100704.44
1.1724,-0.1646,0.7949,-8.415,-22.073,-7.012,1.426,100704.66
1.1548,-0.313,0.585,2.866,-0.61,17.378,1.3318,100704.24
0.8633,-0.3252,1.0854,51.524,31.28,52.744,1.4245,100704.27
0.4873,-0.2495,1.0317,15.183,37.012,43.963,1.168,100703.67
0.6631,-0.1948,0.436,-13.415,-11.159,-9.878,0.8172,100703.85
0.563,-0.0762,0.3911,-23.232,20.305,8.598,0.6897,100703.98
0.585,-0.1494,0.3604,-18.476,31.585,5.793,0.7031,100703.48
0.7549,-0.2031,0.7563,1.951,29.634,-1.22,1.0877,100704.0
0.5239,-0.2642,0.7593,-13.963,42.866,-8.354,0.9596,100703.47
0.7695,-0.3057,0.5264,-17.195,-26.037,-62.073,0.9812,100703.64
1.4897,-0.4385,0.396,29.207,-64.634,-51.89,1.6026,100703.8
0.8901,-0.2588,1.0928,99.024,20.122,59.146,1.433,100704.14
0.3931,-0.1621,0.9897,46.89,12.256,51.829,1.0772,100704.12
0.9019,-0.2856,0.498,3.598,-47.988,8.537,1.0691,100703.62
0.4639,-0.1489,0.5684,3.72,-4.451,52.927,0.7486,100704.22
0.1689,-0.1543,0.3208,-30.793,1.951,35.732,0.394,100703.9
0.4712,-0.2271,0.2471,-27.378,-18.476,-10.61,0.5785,100704.02
0.5562,-0.207,0.6426,-14.085,-8.476,-42.561,0.8747,100703.23
1.1489,-0.1733,0.5034,-54.329,-55.793,-87.5,1.2663,100703.39
1.4233,-0.2891,0.2388,-50.976,-36.768,-45.854,1.4719,100703.39
1.0918,-0.2627,0.7075,-10.061,25.244,12.988,1.3273,100703.77
0.8472,-0.271,0.7583,-12.256,25.122,3.415,1.1688,100703.89
0.9062,-0.3633,0.8911,0.854,-2.683,-34.207,1.3219,100705.22
0.833,-0.3208,0.8022,-12.317,2.744,-28.11,1.2002,100705.59
0.4663,-0.3516,0.5405,-28.841,26.037,-16.402,0.7957,100705.13
0.4282,-0.2539,0.4795,-40.915,5.61,-31.585,0.6912,100705.54
0.4282,-0.1592,0.3423,-57.805,16.768,-36.768,0.5709,100703.85
0.6929,-0.2729,0.5205,-14.573,51.402,-21.829,0.9086,100705.6
0.9014,-0.2891,0.5874,8.841,3.415,-47.988,1.114,100706.48
1.5542,-0.4131,0.6577,47.195,-26.22,-29.39,1.7375,100705.27
1.0435,-0.3467,1.061,83.415,32.012,69.878,1.528,100704.95
0.5498,-0.2476,0.9575,43.171,16.159,76.829,1.1316,100704.45
0.7207,-0.1807,0.7202,8.11,-34.329,44.695,1.0348,100704.2
0.3711,-0.0962,0.7183,-14.512,4.451,59.756,0.8142,100704.76
0.1416,-0.1235,0.4395,-64.207,18.537,21.585,0.4779,100704.41
0.4917,-0.2603,0.1201,-70.366,-22.012,-39.268,0.5691,100703.66
0.7144,-0.2407,0.4814,-34.756,-18.537,-59.39,0.8944,100703.73
0.9541,-0.2832,0.4453,-46.585,-28.598,-68.598,1.0903,100703.63
1.1016,-0.3159,0.4214,-39.634,-33.598,-47.744,1.221,100703.85
1.0781,-0.2407,0.8052,-39.512,-8.049,-23.659,1.367,100704.35
0.8071,-0.1909,0.3818,-81.524,-11.524,-12.439,0.9131,100703.69
0.731,-0.5449,0.335,-26.768,21.402,-27.927,0.9713,100704.12
0.7808,-0.5444,1.3438,40.61,54.268,-36.341,1.6467,100704.0
0.5093,-0.3647,1.3115,-30.976,45.61,-52.744,1.4534,100703.52
0.5229,-0.2036,0.54,-115.305,-3.171,-92.744,0.7788,100703.67
0.5713,-0.1318,0.1006,-121.707,-0.305,-91.463,0.5949,100702.9
0.6226,-0.1436,0.21,-80.305,32.5,-75.671,0.6725,100703.66
0.6792,-0.2085,0.3984,-55.915,36.463,-72.378,0.8146,100703.3
0.7744,-0.2939,0.3354,-56.341,5.732,-77.073,0.8937,100703.84
0.9238,-0.4072,0.4287,-42.744,-5.366,-66.22,1.0969,100703.57
0.9067,-0.4717,1.0566,-24.878,-18.415,-26.768,1.4701,100704.7
0.8574,-0.3413,1.3062,-48.232,-17.195,-13.415,1.5993,100704.34
0.6978,-0.3657,0.7705,-96.829,-0.671,-7.561,1.102,100704.41
0.5059,-0.417,0.5913,-78.78,23.841,-12.683,0.8828,100704.71
0.5698,-0.373,0.9902,-64.695,23.963,-47.866,1.2018,100704.33
0.7788,-0.3838,0.8223,-106.22,7.5,-79.146,1.1958,100703.8
0.8027,-0.332,0.6924,-133.902,10.305,-83.963,1.1109,100704.12
0.686,-0.2598,0.5723,-161.22,16.28,-80.915,0.9304,100704.37
0.5757,-0.2266,0.5215,-182.073,10.732,-85.0,0.8091,100705.28
0.625,-0.1265,0.5581,-200.61,-6.951,-94.756,0.8474,100704.78
0.5474,-0.2568,0.2915,-193.902,14.39,-94.207,0.6712,100704.24
0.5962,-0.4736,0.5811,-134.756,41.159,-110.366,0.9578,100703.73
0.5581,-0.4824,0.7129,-101.037,57.195,-137.317,1.0259,100703.72
0.9946,-0.3921,0.8833,-63.78,17.012,-181.707,1.3868,100703.42
1.3486,-0.4253,0.9014,-49.878,3.598,-148.171,1.6769,100703.6
1.0024,-0.3604,0.9023,-56.707,60.366,-55.0,1.3961,100703.84
0.5342,-0.2554,0.5713,-83.293,76.037,-15.305,0.8228,100704.12
0.5581,-0.1738,0.3394,-82.073,35.549,-21.28,0.6759,100704.58
0.6157,-0.0806,0.3325,-70.732,28.72,-13.11,0.7044,100703.94
0.4717,-0.168,0.1895,-66.646,45.793,-14.695,0.5353,100703.84
0.9023,-0.3623,0.251,-32.927,13.902,-39.756,1.0042,100703.9
1.1387,-0.4409,0.9966,33.415,28.72,-3.232,1.5761,100704.53
0.4927,-0.27,1.438,19.39,60.915,27.378,1.5438,100704.89
0.4424,-0.3472,0.8765,-47.561,1.951,-31.098,1.0414,100704.9
0.4731,-0.2075,0.6519,-76.341,-2.195,-60.122,0.8318,100705.13
0.5654,-0.1357,0.3428,-94.146,-14.939,-85.976,0.675,100706.14
0.7314,0.022,0.3188,-80.976,-26.768,-108.049,0.7982,100706.42
1.0259,0.0952,0.5688,-62.317,-16.89,-137.561,1.1769,100705.91
1.5156,0.0,0.5981,-69.756,-16.341,-144.268,1.6294,100705.0
1.2139,-0.1675,0.4551,-64.39,-25.61,-72.561,1.3071,100705.91
0.96,-0.1064,0.5347,-50.549,-51.159,-21.707,1.104,100706.47
0.6196,-0.2534,0.6221,-36.463,30.732,6.585,0.9139,100706.43
0.4263,-0.373,0.8491,-24.207,23.598,-9.207,1.0207,100706.24
0.4756,-0.228,0.9863,-62.378,-7.683,-55.305,1.1185,100706.23
0.8042,-0.147,0.4702,-118.293,-42.439,-81.646,0.9431,100705.14
0.9087,-0.0518,0.2515,-93.78,-20.854,-36.28,0.9443,100704.81
0.6382,0.0098,0.4785,-37.378,40.61,15.305,0.7977,100705.4
0.5703,-0.1372,0.6553,-1.646,48.963,12.134,0.8795,100705.0
0.6787,-0.1489,0.9224,14.451,22.561,-23.171,1.1548,100704.92
1.4668,-0.1709,0.5811,59.024,-20.183,5.915,1.5869,100704.77
0.7764,0.0229,1.0913,71.585,42.561,73.841,1.3395,100704.88
0.6968,-0.0845,0.5352,3.049,-11.646,57.683,0.8826,100705.1
0.5933,-0.0708,0.3359,-0.793,-24.512,72.744,0.6854,100705.62
0.3457,0.0015,0.2876,-7.378,-2.012,77.927,0.4497,100704.79
0.4131,-0.1514,0.1416,-6.159,-3.476,35.427,0.4622,100704.4
0.8672,-0.2207,0.6626,23.232,-52.256,-22.378,1.1134,100705.71
1.3447,-0.2002,0.6978,-0.732,-83.72,-26.28,1.5281,100705.95
0.9536,-0.2412,0.6699,-13.293,-15.488,30.732,1.1901,100706.13
0.6133,-0.1475,0.499,-34.634,6.829,39.573,0.8043,100705.69
0.4009,-0.3442,0.521,4.756,37.622,-4.268,0.7421,100705.33
0.8877,-0.3071,1.1772,45.0,-10.122,-70.732,1.5061,100705.19
0.9297,-0.2065,0.854,-18.841,-22.561,-62.439,1.2792,100705.08
0.688,-0.1665,0.3081,-58.11,-7.622,-27.195,0.772,100704.63
0.5557,-0.0391,0.1841,-50.244,11.22,5.732,0.5867,100705.02
0.5845,-0.0054,0.4448,-18.11,42.866,16.951,0.7345,100704.59
0.749,-0.083,0.7197,4.939,47.439,6.707,1.0421,100704.27
0.667,-0.1343,0.8062,8.171,30.549,-10.183,1.0549,100705.49
1.082,-0.1289,0.7407,10.854,-28.537,-37.988,1.3176,100705.42
1.3354,-0.1611,0.5991,43.354,-2.439,15.366,1.4725,100705.02
0.6055,0.0303,1.0776,92.5,69.756,84.329,1.2365,100704.59
0.7339,0.0435,0.8916,52.012,-1.341,22.805,1.1556,100705.48
1.019,-0.0723,0.5278,32.622,-40.549,10.854,1.1499,100705.99
0.5518,-0.0205,0.5376,29.817,6.159,68.72,0.7706,100705.66
0.2979,-0.0371,0.3936,-4.878,15.122,71.524,0.495,100705.43
0.3662,-0.0986,0.292,-22.683,-2.439,44.146,0.4786,100705.73
0.6226,-0.1655,0.501,-19.329,-15.0,6.585,0.8161,100705.59
1.1646,-0.3198,0.4502,-29.085,-37.927,-7.073,1.2889,100706.48
1.0981,-0.3706,0.6157,-4.146,4.451,41.951,1.3124,100706.88
0.8335,-0.1978,0.9839,1.037,13.232,43.963,1.3046,100706.7
0.8262,-0.3315,0.7231,-18.902,-4.451,1.585,1.1469,100706.09
0.7734,-0.3027,0.8403,0.305,-4.146,-13.232,1.1815,100705.24
0.6328,-0.2666,0.6421,-11.951,6.098,-20.793,0.9401,100704.13
0.6689,-0.2378,0.498,-22.561,-4.878,-27.744,0.8672,100704.04
0.7256,-0.0845,0.3989,-40.122,-2.439,-8.415,0.8323,100704.45
0.564,-0.043,0.21,-34.512,39.451,21.524,0.6033,100704.28
0.5742,-0.1382,0.5186,19.573,47.256,14.329,0.786,100703.9
0.71,-0.1914,0.9087,39.451,26.646,-8.659,1.1689,100703.73
0.8608,-0.1719,0.8193,17.073,-19.512,-29.451,1.2008,100703.75
1.1426,-0.2329,0.3691,31.524,-41.951,-13.354,1.2231,100703.24
0.8159,-0.1353,1.0889,122.012,7.805,52.378,1.3674,100703.86
0.6758,-0.1553,1.3091,94.39,-6.22,39.451,1.4814,100704.44
1.0312,-0.2485,0.7388,36.951,-59.39,23.171,1.2927,100704.38
0.3916,-0.1421,0.519,31.341,-2.622,79.573,0.6655,100704.93
0.1138,-0.1201,0.3452,11.098,2.744,57.378,0.3828,100704.16
0.5044,-0.1514,0.3911,-5.61,-24.756,6.585,0.656,100704.64
0.6504,-0.2832,0.5195,-22.073,-7.439,-17.744,0.8793,100705.39
1.042,-0.3022,0.5132,-43.476,-40.122,-34.512,1.2002,100706.17
1.0337,-0.3223,0.7012,-49.817,-9.634,-5.305,1.29,100705.7
0.77,-0.2041,0.8062,-71.89,5.976,-1.585,1.1333,100705.34
0.9204,-0.2788,0.4614,-66.402,-16.098,-30.244,1.0667,100705.7
1.0015,-0.4009,0.6538,7.439,20.976,-4.695,1.2614,100705.95
0.5659,-0.4419,0.9292,37.988,72.866,22.744,1.1743,100705.41
0.4927,-0.3838,0.8403,7.317,25.183,-14.695,1.047,100705.02
0.5977,-0.2119,0.3892,-39.817,-17.317,-31.341,0.744,100704.48
0.5024,-0.1396,0.1885,-39.329,13.232,-12.317,0.5545,100704.8
0.6099,-0.1152,0.5415,-11.037,30.915,-8.232,0.8237,100704.7
0.6167,-0.1748,0.7314,-14.146,42.866,-14.268,0.9726,100704.34
0.606,-0.2246,0.6787,-20.915,15.854,-39.451,0.9372,100704.59
0.979,-0.2031,0.5938,-8.598,-37.256,-65.976,1.1629,100705.03
1.2964,-0.3706,0.5176,48.963,-21.098,-19.39,1.4442,100705.0
0.5986,-0.165,1.2153,114.024,42.622,60.183,1.3648,100705.18
0.5596,-0.1768,0.9883,55.305,-0.244,9.39,1.1494,100704.38
1.0557,-0.3145,0.687,24.695,-46.951,-20.427,1.2982,100704.71
0.603,-0.1709,0.7085,3.841,-3.415,31.524,0.9459,100704.97
0.27,-0.2148,0.1641,-47.012,-4.573,23.11,0.3821,100704.43
0.4033,-0.2539,0.1665,-32.866,-34.207,-16.22,0.5048,100704.03
0.7861,-0.2544,0.4663,-26.098,-51.951,-49.878,0.9488,100703.59
1.3154,-0.3208,0.3247,-41.89,-63.232,-39.268,1.3924,100703.26
1.1172,-0.3516,0.6226,-22.5,2.439,36.829,1.3264,100703.95
0.708,-0.3589,0.8828,-44.634,37.744,54.939,1.1872,100703.66
0.6768,-0.4551,0.6475,-62.012,36.037,10.122,1.0413,100703.8
0.7402,-0.5806,1.1553,-15.854,50.488,-18.171,1.4899,100704.23
0.3066,-0.4546,1.1743,-47.622,84.329,-31.951,1.296,100703.71
0.27,-0.4077,0.6895,-96.463,43.11,-104.207,0.8453,100704.07
0.7119,-0.2588,0.373,-115.488,-11.829,-142.561,0.8444,100703.97
0.6587,-0.189,0.2876,-102.561,22.439,-103.598,0.7432,100703.17
0.5996,-0.1333,0.4922,-71.341,39.756,-87.561,0.7871,100703.54
0.9136,-0.2197,0.5962,-55.732,22.683,-87.561,1.1128,100703.19
0.7544,-0.27,0.6177,-40.061,24.146,-46.28,1.0117,100702.7
0.6768,-0.2437,0.6475,-20.061,-9.024,-47.805,0.9678,100703.16
1.2983,-0.375,0.752,14.695,-56.463,-39.573,1.5465,100702.43
0.7124,-0.2695,1.145,33.293,13.72,57.256,1.3752,100702.36
0.2261,-0.373,0.7095,-16.707,27.195,36.768,0.8328,100702.8
0.5908,-0.5322,0.4214,-6.707,-16.707,-27.012,0.8999,100702.9
0.6182,-0.3589,0.8413,16.341,-12.805,-41.463,1.104,100703.45
0.9062,-0.314,0.7173,-44.146,-36.585,-65.976,1.1976,100703.49
0.8672,-0.3857,0.4082,-86.829,-27.683,-51.22,1.0332,100704.14
0.6724,-0.3179,0.4424,-103.049,-14.573,-35.366,0.8653,100703.9
0.4702,-0.3154,0.3008,-138.354,-4.817,-42.5,0.6411,100703.6
0.6807,-0.2646,0.7466,-163.171,-28.598,-94.146,1.0444,100703.12
0.7178,-0.4277,0.5405,-182.317,-2.744,-95.061,0.9952,100703.61
0.8472,-0.5508,0.7402,-142.866,20.366,-78.11,1.2526,100703.88
0.5366,-0.4272,0.8877,-112.988,98.232,-65.0,1.1218,100704.8
0.8994,-0.4814,0.9629,-60.732,94.39,-109.573,1.4028,100704.48
0.9131,-0.4233,1.1777,-0.732,114.695,-102.073,1.5492,100704.16
0.7798,-0.3145,1.3086,13.293,109.817,-102.622,1.5554,100704.65
1.0527,-0.3135,0.8882,-29.146,58.171,-111.341,1.4126,100704.4
0.9092,-0.2642,0.5132,-60.061,42.317,-70.61,1.0769,100704.45
0.5776,-0.1299,0.4087,-84.756,18.78,-38.598,0.7194,100703.52
0.4395,-0.0767,0.2681,-114.024,-24.939,-37.988,0.5204,100704.31
0.4443,-0.186,0.3887,-90.183,-56.768,-42.744,0.619,100705.0
0.5498,-0.3774,0.7959,-49.634,-39.146,-36.646,1.0384,100706.12
0.5449,-0.4639,0.9028,-35.671,-2.683,-35.732,1.152,100705.15
0.8042,-0.3843,1.0273,-47.012,-8.902,-44.329,1.3601,100705.38
0.5381,-0.3198,0.6187,-95.915,24.268,-20.976,0.8801,100704.82
0.3057,-0.3354,0.3589,-111.159,52.317,-31.585,0.5786,100705.02
0.4961,-0.3042,0.5732,-108.354,36.098,-80.0,0.8169,100705.29
0.7554,-0.2578,0.7725,-132.744,13.537,-116.646,1.1107,100706.31
0.7383,-0.3755,0.6265,-164.268,-8.902,-128.171,1.0385,100706.27
1.0986,-0.3071,0.7847,-165.183,-49.634,-135.61,1.3846,100705.96
1.0791,-0.3281,0.7666,-163.293,-18.841,-88.963,1.3637,100705.25
0.5127,-0.3159,0.6509,-143.72,32.317,-46.585,0.8867,100705.22
0.4346,-0.3491,0.604,-104.817,41.402,-85.671,0.8219,100704.94
1.1714,-0.5229,0.812,-34.878,22.805,-126.89,1.5182,100704.48
1.209,-0.3438,1.3188,15.122,50.244,-80.0,1.8219,100704.43
0.8706,-0.2261,0.6055,-28.293,42.134,-50.305,1.0843,100704.61
1.0752,-0.1968,0.0605,-23.841,0.549,-27.927,1.0947,100704.72
0.626,-0.0933,0.2642,3.415,16.524,26.768,0.6858,100705.66
0.4517,-0.1475,0.165,-13.537,-33.963,17.683,0.503,100705.27
0.7207,-0.126,0.271,14.024,-75.366,15.305,0.7802,100704.49
0.522,-0.2031,0.9272,80.793,-24.939,49.573,1.0833,100704.12
0.5713,-0.2085,1.2124,79.146,-19.878,23.415,1.3564,100704.35
1.0825,-0.2617,0.9507,46.341,-43.171,-1.28,1.4643,100703.2
0.7197,-0.1963,0.7168,20.488,16.585,59.024,1.0346,100703.79
0.1846,-0.2559,0.3936,-12.866,62.378,67.988,0.5044,100704.57
0.3013,-0.3779,0.2881,-19.268,36.951,12.134,0.5627,100705.31
0.3335,-0.3696,0.6914,-24.085,11.951,-47.256,0.852,100704.51
0.9097,-0.2705,0.646,-89.512,-68.293,-123.171,1.148,100705.26
1.4824,-0.353,0.4033,-116.098,-80.366,-104.207,1.5763,100704.48
1.1855,-0.3857,0.5171,-78.415,6.28,-12.012,1.3497,100704.64
0.7319,-0.4351,0.8071,-22.927,62.012,16.341,1.1732,100704.02
0.6162,-0.2983,1.0044,-9.695,35.183,-10.366,1.2155,100704.15
0.6797,-0.2271,0.6182,-45.61,5.854,-33.11,0.9464,100704.17
0.772,-0.2056,0.3984,-52.5,12.5,-13.963,0.8927,100703.9
0.4316,-0.0464,0.4185,-50.305,62.195,25.122,0.603,100704.07
0.3032,-0.0884,0.3896,-36.585,79.39,7.134,0.5016,100704.46
0.5225,-0.1436,0.6997,-4.268,50.793,-35.305,0.885,100703.63
0.7207,-0.2983,0.8594,0.061,43.476,-57.988,1.1606,100703.62
1.0503,-0.2705,0.8774,-6.098,-7.561,-63.232,1.3951,100703.63
1.3931,-0.2651,0.5752,7.073,-24.024,-17.256,1.5303,100703.62
0.8027,-0.1855,1.0537,82.744,42.073,68.963,1.3376,100704.11
0.605,-0.0005,1.3901,69.024,0.183,47.256,1.5161,100703.59
1.1475,-0.1064,0.6548,-7.012,-76.524,15.061,1.3254,100703.22
0.6562,-0.001,0.459,-9.939,-30.976,92.134,0.8008,100702.84
0.0186,0.0718,0.3149,-33.354,-5.366,100.366,0.3235,100703.66
0.2056,-0.083,0.0127,-49.939,-42.927,34.573,0.2221,100703.25
0.3916,-0.1865,0.2598,-15.61,-40.061,-14.146,0.5056,100702.95
1.0249,-0.2515,0.4365,-1.829,-65.305,-56.524,1.142,100703.72
1.4683,-0.3066,0.5293,28.902,-43.78,-16.402,1.5906,100703.55
1.3145,-0.2446,0.9668,53.049,4.512,39.39,1.6499,100704.15
1.0552,-0.2275,0.5952,3.11,-3.598,56.28,1.2327,100704.5
0.6289,-0.2573,0.3394,-1.037,2.439,47.256,0.7595,100704.26
0.8052,-0.2539,0.7109,29.39,-20.549,1.829,1.1037,100704.81
0.9409,-0.1943,0.8921,30.305,-19.39,-6.951,1.3111,100704.36
0.7744,-0.0635,0.8276,9.146,-1.829,6.402,1.1352,100704.53
0.6182,0.0376,0.5449,-17.988,2.256,10.244,0.8249,100704.54
0.4907,0.0332,0.3247,-8.415,5.305,8.415,0.5894,100703.54
0.4614,-0.0283,0.501,27.5,8.354,0.366,0.6817,100703.42
0.6343,-0.084,0.5425,34.878,-24.817,-20.122,0.8388,100703.69
0.9814,-0.1484,0.3276,52.683,-45.305,-10.793,1.0453,100703.55
0.8813,-0.1367,0.6416,114.756,5.427,57.317,1.0987,100702.83
0.4683,-0.2334,0.9399,125.061,48.72,85.366,1.0757,100702.41
0.6816,-0.3545,0.8638,85.427,-5.061,36.402,1.156,100702.56
0.7422,-0.436,0.7607,59.756,-7.439,13.72,1.1488,100702.94
0.7134,-0.4419,0.8989,37.5,0.549,-16.524,1.2297,100704.18
1.292,-0.3735,0.5674,-8.841,-54.085,-55.244,1.4597,100703.77
1.3506,-0.3535,0.2241,-4.817,-23.841,-2.927,1.414,100704.79
0.8447,-0.2529,0.3828,7.866,19.329,60.366,0.9613,100705.18
0.5933,-0.2183,0.376,-31.341,-12.622,55.488,0.7355,100705.22
0.7495,-0.2031,0.2485,-64.146,-47.866,35.671,0.8154,100705.12
0.355,-0.3472,0.4331,-29.756,33.171,44.085,0.6589,100704.94
0.4639,-0.4702,1.0972,2.134,26.28,-26.89,1.2806,100704.27
0.7563,-0.2471,1.02,-49.024,-20.976,-82.805,1.2937,100705.23
0.9092,-0.1328,0.5337,-78.049,-21.159,-88.963,1.0626,100705.34
0.9878,-0.1182,0.5073,-47.378,14.268,-52.622,1.1167,100705.89
0.6343,-0.1084,0.5742,-16.89,63.902,-5.549,0.8624,100706.04
0.603,-0.187,0.5991,-1.585,45.732,-15.793,0.8704,100705.12
0.7461,-0.1475,0.5,-12.317,0.854,-22.012,0.9102,100704.99
0.9224,-0.1377,0.0776,-18.963,-28.598,-3.963,0.9358,100704.04
0.5181,-0.1929,0.7524,69.939,14.451,37.439,0.9337,100704.06
1.3677,-0.2432,1.0767,57.927,-68.841,-17.561,1.7575,100704.59
1.0762,-0.1899,0.9673,24.39,-13.171,23.171,1.4594,100704.72
0.8291,-0.2676,0.6079,2.5,-0.549,13.415,1.0623,100705.42
1.0127,-0.2739,0.479,0.793,-38.293,-2.866,1.1533,100705.62
0.6558,-0.2876,0.2935,-12.378,-14.39,25.915,0.7739,100705.91
0.457,-0.3291,0.2202,-29.207,-17.195,22.744,0.6047,100704.99
0.459,-0.2964,0.4277,-57.927,-30.061,0.915,0.6939,100704.59
0.5962,-0.4321,0.1255,-77.927,-27.622,-25.427,0.7469,100703.89
0.7954,-0.7324,0.9087,-2.805,8.293,-48.841,1.4124,100703.02
0.7153,-0.4619,1.4702,-23.902,26.28,-57.805,1.699,100702.97
0.6431,-0.3042,0.9019,-97.561,26.159,-93.841,1.1487,100703.17
0.8032,-0.2046,0.6357,-96.341,22.683,-114.756,1.0446,100704.02
0.6904,-0.1221,0.5806,-84.39,53.11,-105.671,0.9103,100704.3
0.8555,-0.1108,0.4087,-85.244,30.488,-111.28,0.9545,100704.04
0.936,-0.0977,0.2192,-88.049,10.793,-91.402,0.9663,100704.09
0.8447,-0.1069,0.1235,-75.854,-7.378,-54.207,0.8604,100703.74
0.7041,-0.0747,0.354,-63.415,-22.622,-22.683,0.7916,100703.48
0.5327,-0.2168,0.0571,-57.805,-29.207,-17.5,0.578,100703.02
1.0176,-0.5469,0.5884,40.671,-28.659,-30.122,1.2964,100703.05
1.2275,-0.3418,1.7134,67.988,-5.244,-3.171,2.1353,100703.04
0.7793,-0.4575,0.9692,-49.634,32.256,7.439,1.3252,100702.71
0.5649,-0.5356,0.5571,-81.768,25.244,-35.854,0.9573,100702.93
0.9385,-0.4995,0.5801,-97.988,-10.122,-82.439,1.2111,100703.69
0.8589,-0.4624,0.459,-127.5,-3.171,-74.39,1.078,100703.56
0.811,-0.3242,0.4961,-155.671,-23.415,-76.524,1.0045,100703.45
0.8271,-0.2319,0.5552,-199.756,-31.89,-67.5,1.0228,100703.73
0.6953,-0.3237,0.1372,-224.817,-7.561,-49.024,0.7792,100703.57
0.6221,-0.769,0.6099,-147.073,60.0,-47.988,1.162,100703.47
0.3511,-0.4712,1.123,-127.012,69.268,-83.963,1.2675,100702.5
1.0444,-0.3652,0.7388,-138.537,-1.707,-163.537,1.3304,100702.84
1.1699,-0.1733,0.8486,-96.951,12.073,-115.366,1.4557,100702.61
0.4233,0.0024,0.5698,-101.829,82.378,-43.232,0.7099,100703.27
0.4434,-0.0391,0.1382,-92.5,66.951,-54.939,0.466,100703.91
0.6553,-0.0923,0.3989,-46.098,59.451,-68.963,0.7727,100704.48
0.8135,-0.1689,0.3408,-47.561,14.817,-74.817,0.898,100704.06
0.9048,-0.2578,0.2388,-13.78,-6.951,-56.28,0.9706,100704.72
0.856,-0.2432,1.375,54.573,32.805,-42.744,1.6378,100704.7
1.1719,-0.2607,1.2935,-19.207,-5.793,-67.317,1.7647,100704.6
1.1357,-0.3564,0.645,-52.866,-10.488,-35.854,1.3539,100704.77
0.561,-0.3027,0.7173,-31.951,46.037,0.122,0.9596,100705.02
0.5044,-0.3252,0.5903,-57.866,23.72,-43.049,0.8418,100705.31
0.7261,-0.373,0.6191,-76.89,-4.451,-81.098,1.0245,100705.69
0.7842,-0.2788,0.9131,-109.329,-16.159,-92.744,1.2355,100705.73
0.8726,-0.2061,0.6509,-171.463,-51.646,-97.073,1.1079,100705.28
1.0005,0.0,0.5688,-187.317,-72.805,-73.415,1.1509,100705.91
0.6899,0.0015,0.3994,-165.427,-11.585,-25.976,0.7972,100704.84
0.5464,-0.3555,0.5654,-102.134,35.549,-34.451,0.8629,100703.53
0.4512,-0.2686,0.8423,-72.744,29.451,-55.976,0.9925,100702.68
0.6069,-0.1499,0.7432,-93.293,0.854,-82.622,0.9711,100703.75
0.6797,-0.0713,0.436,-102.073,5.61,-65.427,0.8107,100703.59
0.5952,-0.1587,0.501,-58.598,62.5,-43.171,0.794,100703.95
0.6631,-0.2314,0.8403,-11.585,52.683,-50.122,1.0952,100703.98
0.9922,-0.2197,0.9292,0.488,-8.841,-63.476,1.377,100703.98
1.4663,-0.2461,0.4946,24.939,-21.463,-14.817,1.5669,100703.27
0.4927,-0.0972,1.1958,98.11,111.585,98.78,1.297,100703.46
0.2544,-0.1729,1.1289,17.683,44.756,38.72,1.1701,100703.87
0.9697,-0.1138,0.395,-56.829,-73.11,-15.854,1.0533,100704.13
0.3076,-0.0376,0.0991,-49.695,15.549,47.134,0.3254,100703.27
0.1748,-0.1289,0.1567,-25.061,29.451,5.427,0.2678,100703.1
1.0635,-0.2505,0.5923,3.415,-33.841,-81.341,1.2428,100704.23
1.3589,-0.231,1.0962,7.622,-26.28,-60.732,1.7611,100704.91
0.7783,-0.2227,0.8359,-55.244,-7.744,-21.463,1.1637,100704.74
0.9404,-0.1895,0.2217,-94.024,-56.951,-33.659,0.9846,100704.1
0.605,-0.4292,0.457,-20.366,21.037,-10.366,0.8713,100703.73
0.7373,-0.4146,1.3916,8.902,2.439,-49.329,1.6285,100704.09
0.8452,-0.1816,0.8232,-92.439,-46.707,-57.256,1.1938,100704.69
0.5166,0.0137,0.2627,-109.573,-25.122,-15.305,0.5797,100703.58
0.3579,0.0815,0.3926,-58.902,17.5,5.61,0.5375,100702.99
0.3384,-0.0464,0.3472,-17.927,47.5,0.366,0.487,100703.77
0.5889,-0.2607,0.6162,52.622,34.085,-19.512,0.8913,100703.83
1.0679,-0.1035,1.1948,64.817,-11.707,-26.829,1.6058,100703.89
1.3096,-0.2275,0.6079,34.573,-3.171,29.39,1.4616,100704.76
0.3574,-0.0708,0.9473,74.512,73.841,110.671,1.0149,100704.92
0.6602,-0.144,0.7593,30.732,-11.768,26.402,1.0164,100704.94
1.2065,-0.1665,0.7666,34.268,-45.488,16.829,1.4391,100705.4
0.2681,-0.1113,0.9668,20.549,38.171,72.195,1.0094,100706.25
0.3433,-0.186,0.5186,-39.451,-31.28,-6.098,0.6491,100705.78
0.9414,-0.1606,0.4097,-41.037,-80.549,-48.78,1.0392,100705.41
0.7588,-0.1494,0.5713,-43.659,-36.585,3.232,0.9615,100704.66
0.8257,-0.0308,0.2275,-61.524,-63.72,-3.232,0.857,100704.71
0.7144,-0.2305,0.5469,20.732,-0.366,-11.829,0.9287,100704.49
1.1416,-0.2632,1.4185,56.768,-17.805,-43.902,1.8397,100704.69
1.0493,-0.1523,0.8506,-35.0,-21.951,-12.012,1.3593,100705.09
0.6362,-0.0522,0.2266,-65.366,3.963,33.598,0.6774,100705.03
0.3716,0.0688,-0.0054,-41.463,27.378,50.488,0.3779,100705.23
0.4375,-0.0698,0.2446,25.793,64.146,39.695,0.5061,100705.48
0.2773,-0.083,0.8525,53.963,82.317,32.073,0.9004,100706.52
0.4409,-0.0605,0.562,2.073,23.902,-27.378,0.7169,100706.72
