ax,ay,az,gx,gy,gz,avm,pressure
0.4004,0.0938,-0.48,-61.341,-48.78,-35.244,0.632,100735.43
0.7197,0.208,-0.3477,-30.671,-47.805,-43.72,0.8259,100734.72
1.2319,0.2676,-0.1377,16.524,-39.268,-29.146,1.2682,100733.83
1.6558,0.3618,0.0151,93.171,-31.89,-14.939,1.6949,100734.09
1.8267,0.5737,0.1323,116.159,4.634,-24.268,1.9192,100732.82
0.8149,0.2412,-0.0684,114.207,54.329,-11.098,0.8526,100732.1
0.4648,0.1226,-0.2061,79.268,26.524,-21.89,0.523,100731.7
0.251,-0.1113,-0.1953,3.537,15.0,-10.122,0.3369,100731.87
0.2422,-0.3916,-0.2246,-33.72,9.085,-6.89,0.5123,100732.13
0.6416,-0.2964,-0.0122,-37.988,-6.585,1.707,0.7069,100731.82
0.917,-0.2314,-0.1172,-62.622,-42.866,69.878,0.953,100731.53
0.9736,-0.1147,-0.1768,-15.427,-25.854,61.951,0.9962,100731.79
2.1338,0.5508,0.9668,27.805,-61.463,-26.098,2.4065,100731.38
2.083,0.3618,0.1025,-96.037,-18.78,11.951,2.1167,100731.4
1.2544,0.3198,-0.0161,-50.61,88.659,-15.061,1.2946,100731.21
0.9736,0.3359,-0.0327,-41.159,66.829,-50.61,1.0305,100731.41
0.9238,-0.0659,-0.5562,-55.793,34.512,-27.439,1.0803,100730.05
0.5503,-0.2275,-0.5327,-2.988,67.622,8.902,0.799,100729.98
0.2427,0.0815,-0.2661,40.366,73.598,33.415,0.3693,100729.67
0.3633,0.2959,-0.0981,27.256,11.402,39.024,0.4787,100729.82
0.9023,0.2363,0.0684,9.39,-49.756,24.573,0.9353,100729.92
1.4033,0.5054,0.6094,53.171,-16.28,-9.207,1.6112,100730.24
1.5781,0.561,0.3975,39.024,-3.598,-34.329,1.7214,100731.45
1.8477,0.3623,0.0991,39.512,-34.878,-66.951,1.8855,100731.12
0.126,-0.3315,-0.1323,31.159,64.878,52.927,0.3786,100729.84
0.0645,-0.2705,-0.2031,-34.329,-31.463,59.939,0.3444,100730.66
0.5117,-0.2031,-0.0366,-64.146,-63.659,44.878,0.5518,100730.66
0.9683,0.0078,-0.2495,-73.354,-58.354,56.89,0.9999,100729.8
1.4497,0.5327,0.5869,28.293,-1.524,11.159,1.6522,100729.6
1.9292,0.7656,1.064,16.037,10.976,-58.902,2.3324,100729.63
1.8379,0.2637,0.2378,-39.207,-11.585,-63.659,1.8719,100730.26
1.1226,0.1094,0.0557,-1.037,29.329,-45.549,1.1292,100729.84
0.6519,0.0439,-0.042,-39.695,44.207,-18.537,0.6547,100729.62
0.3022,-0.2939,-0.6646,-84.939,26.646,53.659,0.787,100729.33
0.3096,0.2207,-0.3027,14.634,54.939,47.317,0.486,100729.47
0.8613,0.3901,-0.1953,16.28,21.402,21.28,0.9655,100729.41
1.4316,0.2798,-0.4023,83.171,-43.537,34.329,1.5132,100728.35
1.8291,1.0508,0.8096,261.341,-11.524,21.159,2.2595,100728.98
1.5605,0.9326,1.0688,220.366,13.659,25.671,2.1089,100728.76
0.9341,0.1372,0.459,113.171,5.61,25.427,1.0498,100728.41
0.4731,-0.3291,0.0503,52.622,-20.183,13.049,0.5785,100728.74
0.3472,-0.6533,-0.396,-13.476,-82.805,22.683,0.8391,100727.8
0.5054,-0.6909,-0.5493,-11.646,-74.756,45.061,1.0171,100727.12
0.6719,-0.2085,0.0093,48.598,7.561,69.39,0.7035,100725.89
0.8857,0.25,0.1543,41.524,25.122,94.39,0.9332,100725.05
1.1357,0.4849,0.8677,78.354,52.5,19.573,1.5093,100724.79
1.5742,0.4141,0.9126,39.634,-6.159,-45.244,1.8661,100725.3
1.0786,0.1924,0.041,18.476,47.622,-61.463,1.0964,100726.7
0.752,-0.1138,-0.3101,-0.122,39.085,-54.085,0.8213,100727.38
0.7705,-0.1577,-0.2886,-0.61,8.598,-28.171,0.8378,100726.64
0.7266,0.0513,-0.2305,9.695,3.293,27.378,0.764,100726.72
0.8071,0.4771,0.0435,37.317,-10.549,83.171,0.9386,100726.06
1.0312,0.5127,-0.4058,66.402,-19.573,121.463,1.2211,100725.29
1.1851,0.875,0.3291,258.537,36.89,88.171,1.5094,100724.81
1.3452,1.0269,1.0249,282.927,4.817,41.707,1.9785,100724.82
1.105,0.0996,-0.1621,193.537,-43.354,36.28,1.1212,100725.8
1.2588,0.3384,0.1304,283.293,21.159,-13.049,1.31,100725.68
0.8853,0.1064,0.4819,212.622,67.317,8.293,1.0135,100725.84
0.4404,-0.4355,-0.1279,83.841,-0.427,72.073,0.6325,100725.6
0.6108,-0.2642,-0.2334,80.305,-24.573,77.927,0.7053,100726.41
0.8066,0.0928,-0.2329,120.183,42.561,63.72,0.8447,100726.26
0.9712,0.4312,0.2207,192.378,40.366,20.061,1.0853,100726.56
1.542,0.7964,0.7485,213.659,-63.78,-23.72,1.89,100726.55
1.5332,0.4639,0.6104,150.671,-78.415,-22.134,1.7142,100726.8
0.8833,-0.0317,0.0322,98.415,-37.5,15.976,0.8845,100726.61
0.644,-0.0088,-0.1372,113.415,-15.671,33.72,0.6586,100726.61
0.6899,0.2388,-0.2031,137.5,12.805,49.451,0.7578,100726.39
0.4873,0.4004,-0.2378,181.646,74.451,27.439,0.674,100727.0
0.9976,0.501,0.2144,209.207,4.695,-30.244,1.1367,100726.8
1.8047,0.4932,-0.0659,190.244,-154.756,-33.354,1.872,100726.6
1.8789,0.2314,-0.1064,229.329,-57.805,-69.146,1.8961,100726.57
1.3062,0.1367,0.1831,266.098,157.378,-103.11,1.326,100726.11
0.7578,0.0972,0.48,233.415,150.366,-77.683,0.9023,100726.48
0.8052,-0.2681,0.3774,136.402,-5.061,-38.841,0.9288,100727.13
0.939,-0.416,0.3013,47.012,-36.463,-1.341,1.0703,100727.02
0.7964,-0.3545,0.064,-39.146,29.573,56.341,0.8741,100728.02
0.9229,-0.0137,-0.0117,-101.341,73.78,98.11,0.923,100728.16
0.8042,0.2744,0.1235,-155.549,61.402,106.159,0.8587,100728.08
0.8398,0.0708,0.0825,-192.256,-25.366,57.805,0.8469,100727.79
1.23,-0.0991,-0.1758,-133.049,-60.061,-7.378,1.2464,100728.83
1.4741,0.1235,-0.126,42.5,-19.695,-63.354,1.4846,100729.36
1.3931,0.4873,0.0508,182.317,29.695,-95.305,1.4767,100729.12
1.4717,0.4663,0.1694,192.744,31.463,-73.11,1.5531,100729.33
1.1689,0.0625,0.1577,125.061,29.817,0.305,1.1812,100728.14
0.5825,-0.1025,-0.0791,67.622,30.488,61.768,0.5967,100728.09
0.3691,-0.0161,-0.1309,46.89,33.415,77.439,0.392,100726.94
0.5786,0.0317,-0.188,44.634,30.366,73.293,0.6092,100726.72
0.8188,0.0864,0.0024,106.159,62.195,27.561,0.8234,100726.79
1.4814,0.3618,0.4414,195.122,25.061,-31.037,1.5876,100726.61
1.9004,0.5991,0.5801,239.085,-41.524,-3.232,2.0753,100726.51
1.1265,0.4351,0.5947,185.915,40.671,16.037,1.3461,100727.79
0.564,-0.0049,0.5957,67.073,77.195,4.573,0.8203,100727.27
0.4385,-0.2451,0.6543,-38.963,15.976,31.098,0.8249,100727.03
0.4072,-0.189,0.4155,-139.817,-13.537,62.561,0.6117,100727.34
0.4492,-0.251,-0.0581,-214.695,-18.841,88.232,0.5178,100727.09
0.8223,0.1802,0.5425,-53.232,18.11,-44.512,1.0014,100727.76
1.6343,0.5698,0.4126,-18.841,-112.5,-77.988,1.7793,100727.99
1.4976,0.3657,0.4727,2.134,-17.5,-99.39,1.6124,100728.54
1.2886,0.2202,0.5142,4.085,50.61,-85.671,1.4047,100729.05
0.9355,0.082,0.168,-52.378,15.732,-17.561,0.954,100728.68
0.5601,-0.1978,-0.3384,-89.024,-24.634,45.549,0.6836,100728.44
0.5464,-0.0337,-0.2354,-39.573,-2.073,49.146,0.5959,100728.73
0.7368,0.1118,-0.3638,-22.134,-10.488,62.378,0.8293,100728.21
0.9985,0.0942,-0.0859,60.915,7.622,41.463,1.0066,100728.57
1.2495,0.687,0.9697,147.622,55.854,-30.854,1.7244,100728.26
1.6016,0.6113,0.875,34.878,-44.695,-46.585,1.9247,100728.0
1.3096,0.0146,0.0952,-65.488,-97.744,-3.354,1.3131,100728.07
0.7705,-0.1587,-0.1357,-58.049,-45.61,1.22,0.7983,100727.86
0.5083,-0.3535,-0.1011,-55.976,-31.89,11.098,0.6273,100726.89
0.4214,-0.4019,0.0698,-63.537,-3.537,23.049,0.5865,100728.12
0.5117,-0.0571,0.1211,-88.902,0.244,46.524,0.5289,100727.68
0.7559,0.0156,-0.3193,-120.183,-16.707,71.22,0.8207,100727.86
1.0396,-0.0005,0.4839,-16.159,30.122,11.951,1.1467,100727.59
1.397,0.4141,1.1548,-8.72,18.293,-57.073,1.8592,100728.38
1.6724,0.3291,0.4189,-79.39,-70.366,-63.902,1.7552,100728.97
1.3657,0.0605,-0.0347,-55.122,-33.537,-54.634,1.3675,100729.05
0.9385,0.0479,0.0781,-1.22,58.293,-55.488,0.9429,100728.96
0.6841,0.0957,0.127,-1.341,53.293,-30.366,0.7023,100728.16
0.6123,0.0303,0.0303,-40.488,15.122,3.171,0.6138,100727.88
0.5781,0.0034,-0.1372,-61.524,-10.793,42.622,0.5942,100727.72
0.7129,0.1069,-0.4087,-50.976,-33.78,65.854,0.8287,100728.45
1.0483,0.1133,-0.2896,27.134,-34.512,58.232,1.0935,100729.09
1.3193,0.4106,0.3994,111.22,8.78,18.049,1.4383,100728.16
1.4526,0.436,0.3525,95.305,-3.11,-5.854,1.5571,100727.67
1.4639,0.1958,0.1914,86.951,-2.012,-21.098,1.4893,100727.64
1.1509,0.0801,0.2666,90.976,37.866,-21.341,1.1841,100728.3
0.8042,-0.1621,0.2749,54.451,28.963,-9.573,0.8652,100729.03
0.5635,-0.3184,0.1768,-3.537,-1.951,1.037,0.6709,100729.34
0.4609,-0.2671,-0.0278,-62.744,-21.159,16.463,0.5335,100728.73
0.5645,-0.1978,-0.1431,-102.5,-30.183,33.841,0.615,100728.29
0.8584,-0.1089,-0.3491,-108.841,-24.756,53.963,0.9331,100727.3
1.1309,0.2002,0.3638,-29.573,22.561,15.915,1.2047,100728.18
1.2788,0.3164,0.6846,-39.939,10.549,-21.951,1.4846,100729.56
1.5718,0.2632,0.3403,-41.098,-22.256,-57.5,1.6296,100729.15
1.6865,0.2207,0.2148,11.22,6.098,-66.951,1.7144,100729.31
1.0239,0.0044,0.0439,29.634,97.988,-47.988,1.0249,100729.59
0.6792,-0.0552,0.0464,27.073,65.854,-24.085,0.683,100729.52
0.5728,-0.0566,-0.043,-13.537,-7.073,11.89,0.5771,100729.5
0.5674,0.0205,-0.0938,-31.646,-27.378,46.89,0.5754,100728.95
0.73,0.1626,-0.0488,-6.646,0.976,60.122,0.7495,100729.41
0.9878,0.2329,0.3838,52.927,40.915,22.073,1.085,100729.63
1.5,0.4102,0.8257,93.354,-38.902,-29.024,1.7607,100729.3
1.9175,0.3262,0.5513,59.207,-90.976,-40.183,2.0216,100729.04
1.1724,-0.0825,-0.0259,27.256,12.988,-10.244,1.1755,100729.37
0.3882,-0.1816,-0.0615,26.341,60.854,3.78,0.433,100728.63
0.2568,-0.3374,-0.0723,-22.256,16.341,0.61,0.4301,100728.21
0.3965,-0.271,0.0449,-52.256,-2.988,0.854,0.4823,100728.51
0.5791,-0.0493,0.1294,-82.866,-1.037,11.28,0.5954,100727.01
0.9194,-0.0615,-0.3481,-98.78,-31.829,34.573,0.9851,100727.47
1.2715,0.2202,0.5444,23.902,11.524,-1.098,1.4006,100728.2
1.4385,0.6343,1.1899,31.707,40.0,-62.134,1.9717,100728.24
1.6362,0.4893,0.5381,-24.756,-28.232,-76.89,1.7906,100729.12
1.6353,0.3403,0.4385,8.049,4.756,-66.159,1.7269,100729.81
1.103,0.2446,0.4321,13.537,81.707,-46.402,1.2096,100729.33
0.6191,-0.0498,0.0381,-35.915,30.549,-15.122,0.6223,100729.45
0.3472,-0.1416,-0.2554,-46.037,-24.451,23.72,0.4536,100728.43
0.2812,0.0967,-0.1411,-2.622,-11.037,39.085,0.3292,100728.03
0.5981,0.2104,-0.1045,11.22,-46.28,51.951,0.6426,100727.52
1.2476,0.2998,-0.0254,60.732,-73.598,58.354,1.2833,100727.71
1.4468,0.6699,0.5298,166.341,3.963,49.817,1.6801,100728.48
1.4487,0.6328,0.6426,171.341,60.915,13.72,1.7065,100728.65
1.3677,0.0571,0.2573,126.829,17.195,7.805,1.3928,100729.18
0.9307,0.0146,0.394,109.634,42.195,-12.805,1.0108,100729.84
0.5386,-0.2539,0.2246,2.073,15.0,-11.524,0.6364,100729.59
0.416,-0.4663,-0.0981,-78.537,-25.793,0.61,0.6326,100729.05
0.5708,-0.3833,0.1543,-84.39,-35.61,3.11,0.7047,100729.5
0.7212,-0.2559,0.1733,-119.756,-45.732,35.976,0.7846,100728.61
0.8452,-0.2021,-0.2778,-106.646,-62.683,55.793,0.9124,100727.34
1.3218,0.1406,0.7754,16.341,-40.244,-8.659,1.5389,100726.95
1.5342,0.5664,0.8525,2.744,-3.171,-44.146,1.8443,100727.62
1.6797,0.6206,0.6133,-8.902,-15.244,-63.293,1.8928,100728.52
1.4937,0.4058,0.4854,-27.439,10.671,-50.305,1.6221,100728.69
0.9961,0.1279,0.2505,-63.598,53.354,-31.463,1.035,100729.55
0.4805,-0.1006,-0.1055,-116.768,21.585,12.561,0.5021,100729.23
0.1392,-0.1484,-0.3271,-134.39,-5.244,38.171,0.3853,100729.12
0.2437,-0.0688,-0.3623,-98.841,-30.061,26.585,0.442,100728.93
0.6978,0.1509,-0.0957,-10.366,-60.732,9.268,0.7203,100728.41
1.4653,0.7051,0.8022,70.305,-87.622,-29.268,1.8133,100728.77
1.7544,0.5283,0.7046,14.878,-65.305,-16.402,1.963,100728.65
1.311,0.1802,0.3828,-23.171,29.451,-6.28,1.3776,100728.83
0.7485,-0.0479,0.3027,-40.366,58.171,-18.232,0.8089,100728.98
0.6729,-0.2656,0.3188,-72.378,-7.683,-32.073,0.7905,100728.82
0.7739,-0.2192,0.2207,-116.89,-53.293,-25.0,0.8341,100727.8
0.7041,-0.165,0.3145,-185.366,-54.146,3.049,0.7886,100727.94
0.813,-0.0903,0.251,-233.415,-68.476,18.11,0.8556,100728.16
0.8633,-0.0996,0.3027,-194.085,-33.11,-21.098,0.9202,100727.7
1.5464,0.3022,1.2085,-139.085,-68.171,-104.39,1.9857,100727.84
1.6626,0.0864,0.3022,-218.78,-89.817,-84.329,1.6921,100728.82
1.3677,-0.0156,0.0078,-141.402,-34.207,-78.476,1.3678,100729.29
1.2554,0.1416,0.4697,-65.427,26.646,-87.073,1.3478,100729.66
0.8896,0.145,0.3438,-111.646,5.183,-40.854,0.9647,100729.32
0.4263,0.0093,-0.0186,-171.89,-32.927,10.915,0.4268,100729.67
0.23,0.1719,-0.0381,-181.402,-10.366,23.11,0.2896,100729.46
0.3691,0.208,0.0249,-191.22,-15.549,19.451,0.4244,100728.55
0.8071,0.0645,0.1089,-168.659,-50.366,8.171,0.817,100729.73
1.4131,0.1182,0.6885,-100.244,-18.171,-40.732,1.5763,100730.33
1.7402,0.1543,0.7451,-89.939,7.256,-53.293,1.8993,100730.29
1.8154,0.2134,0.7085,-82.012,27.073,-56.829,1.9604,100730.73
1.5117,0.1748,0.5747,-100.061,55.061,-57.744,1.6267,100730.71
0.9785,-0.062,0.0996,-146.585,21.585,-36.951,0.9855,100730.04
0.6602,-0.3398,-0.2603,-180.244,-31.28,-12.927,0.7868,100729.8
0.3242,-0.3564,-0.144,-159.695,-50.366,1.463,0.5029,100729.87
0.4902,0.1113,0.3276,-138.902,-78.659,-3.171,0.6001,100729.21
0.7646,0.2603,0.2588,-200.305,-87.988,22.622,0.8482,100728.48
0.8252,0.0898,0.1436,-181.098,-64.817,33.963,0.8424,100728.03
1.1572,0.3511,0.8848,-117.927,-45.366,-30.549,1.4984,100728.06
1.2534,0.1489,0.355,-160.122,-58.354,-44.329,1.3112,100728.34
1.6011,0.0156,0.332,-86.768,-48.171,-86.89,1.6352,100728.43
1.5752,0.1396,0.4795,-30.305,-1.707,-90.122,1.6525,100728.5
1.0527,-0.0557,0.1294,-35.854,44.939,-53.049,1.0621,100729.26
0.7017,-0.0786,0.0117,-24.085,31.585,-16.28,0.7061,100729.13
0.4878,0.0098,-0.1113,-33.963,12.622,17.012,0.5004,100728.69
0.2524,0.0742,-0.1851,-28.902,11.402,35.671,0.3217,100728.73
0.585,0.2749,0.0381,-4.451,-20.854,24.939,0.6475,100728.48
1.2461,0.2637,0.269,18.354,-59.634,25.549,1.3018,100728.44
1.3726,0.2563,0.2769,59.756,-15.061,38.78,1.4235,100727.79
1.3579,0.2734,0.3721,91.098,54.268,-10.854,1.4343,100727.77
1.5908,0.1899,0.5049,87.195,7.195,-40.061,1.6798,100728.03
1.3477,-0.043,0.248,36.159,-22.012,-25.061,1.371,100728.33
0.7832,-0.5386,-0.1831,-19.512,11.22,8.049,0.968,100728.56
0.1011,-0.1392,0.0654,-12.195,-5.61,57.927,0.184,100728.18
0.3696,-0.0396,0.2563,-46.28,-16.22,25.183,0.4516,100728.09
0.6636,0.1953,0.2334,-42.073,-36.89,20.854,0.73,100728.63
1.458,0.5317,0.7661,-22.805,-85.366,-25.732,1.7307,100728.78
1.9678,0.3062,0.1479,-74.939,-76.707,-32.378,1.9969,100728.38
1.853,0.187,0.1006,17.622,32.378,-52.683,1.8652,100728.42
1.394,0.5503,0.6089,78.476,90.122,-70.793,1.6177,100728.49
0.9019,0.2197,0.272,-4.085,33.049,-52.378,0.9673,100728.78
0.6475,-0.2148,-0.2856,-51.341,-28.902,-12.988,0.7396,100728.11
0.3848,-0.1436,-0.3921,-10.793,5.976,9.024,0.5678,100728.48
0.2637,0.1714,-0.0947,31.707,20.854,22.134,0.3284,100728.62
0.6665,0.2061,-0.1162,13.902,-41.707,32.5,0.7072,100729.22
1.332,0.2578,0.0239,59.024,-82.988,44.756,1.357,100729.65
1.6206,0.415,0.2959,115.488,-17.256,26.89,1.6989,100730.7
1.5571,0.4341,0.3989,127.988,40.915,1.463,1.665,100730.03
1.3579,0.2979,0.416,107.012,30.732,-4.512,1.4511,100730.28
1.0132,0.0728,0.3057,55.366,21.098,2.134,1.0608,100730.1
0.5278,-0.3096,0.0518,-13.72,23.598,19.939,0.6141,100730.45
0.2573,-0.4409,-0.0923,-61.28,9.024,42.561,0.5188,100729.73
0.231,-0.2656,0.0645,-76.951,-1.707,48.354,0.3578,100728.57
0.4487,-0.0903,0.0327,-91.646,-9.695,46.524,0.4589,100728.91
0.8711,0.3345,0.3008,-42.805,-18.841,9.329,0.9804,100728.8
1.6479,0.5015,0.6797,-51.402,-52.073,-45.061,1.8518,100729.31
1.8569,0.3506,0.1997,-78.659,-49.756,-40.61,1.9003,100729.56
1.5537,0.3799,0.1475,-21.098,35.549,-51.22,1.6063,100729.74
1.1011,0.2119,0.1206,6.463,79.451,-58.537,1.1277,100729.13
0.9141,0.0723,0.1001,15.061,37.622,-44.39,0.9224,100728.7
0.71,-0.0996,-0.1045,-15.549,3.902,-15.732,0.7245,100728.98
0.4717,-0.1792,-0.4263,-31.341,-27.134,27.988,0.6605,100728.53
0.6138,0.1533,-0.2495,16.707,-38.293,51.585,0.6801,100728.59
0.9814,0.4321,0.0962,77.134,-27.866,47.866,1.0767,100728.54
1.2173,0.6479,0.5942,110.122,-26.585,34.146,1.5016,100728.58
1.4321,0.5674,0.5815,66.098,-26.402,-13.476,1.6465,100728.98
1.5552,0.1294,0.0415,25.366,-65.549,-28.049,1.5611,100728.92
1.3472,0.0151,-0.0327,51.524,-14.207,-27.622,1.3477,100729.64
0.7773,-0.1768,0.0234,44.146,37.134,-0.061,0.7975,100728.71
0.3994,-0.3042,0.1299,2.683,28.963,24.939,0.5186,100728.83
0.3286,-0.2007,0.1836,-58.11,17.622,42.927,0.4266,100728.23
0.3994,-0.0605,0.2461,-117.683,30.427,41.89,0.473,100728.49
0.6401,0.0854,-0.0698,-148.476,-0.671,38.171,0.6496,100728.8
1.2627,0.1968,0.3525,-103.476,-58.476,-10.183,1.3257,100728.18
1.7036,0.3257,0.4253,-89.39,-61.402,-58.293,1.7858,100728.55
1.8691,0.3599,0.1836,-50.183,-43.598,-71.402,1.9123,100728.72
1.3828,0.2939,0.0249,-10.793,42.5,-57.012,1.4139,100728.49
0.8018,0.0513,-0.1562,8.963,94.39,-35.549,0.8184,100728.64
0.7305,0.0244,-0.1279,8.902,61.037,-4.207,0.742,100728.15
0.5723,-0.0034,-0.2754,-20.793,15.549,47.866,0.6351,100726.8
0.4624,0.1807,-0.1406,-0.915,-7.561,70.61,0.516,100726.74
0.8228,0.229,-0.0718,13.598,-25.244,60.488,0.857,100726.18
1.167,0.1045,0.3164,80.244,-1.707,30.244,1.2136,100726.49
1.3823,0.4321,0.7285,119.939,16.463,-12.317,1.6212,100725.86
1.3276,0.2256,0.2646,77.988,-13.232,-20.61,1.3724,100726.36
1.2705,0.1646,0.2471,99.695,-6.28,-27.927,1.3047,100726.49
0.5859,-0.1108,0.3262,-8.415,20.549,12.744,0.6797,100726.44
0.4072,-0.1685,-0.0059,-97.012,-22.012,41.524,0.4407,100726.05
0.4385,-0.3037,-0.3472,-136.22,-50.183,60.732,0.6364,100725.51
0.8193,-0.1323,-0.5596,-73.598,-56.768,75.488,1.001,100726.07
1.3564,0.1953,-0.0371,80.915,-26.707,73.476,1.3709,100725.91
1.2378,0.5703,0.5947,179.085,125.122,15.671,1.487,100725.7
1.2051,0.4727,0.5708,169.878,134.329,-45.061,1.4147,100726.01
1.2437,0.3818,0.5249,160.122,19.634,-53.78,1.4029,100726.21
1.126,0.2163,0.4678,117.927,-33.78,-56.646,1.2383,100726.49
0.9878,0.0039,0.4658,53.537,-33.11,-33.841,1.0921,100726.23
0.6982,0.1865,0.3657,-34.268,1.22,20.61,0.81,100727.02
0.376,0.146,-0.0869,-133.293,6.28,65.854,0.4126,100726.75
0.48,0.0293,-0.5708,-139.878,-61.829,83.72,0.7464,100726.8
1.1855,-0.0312,-0.436,2.988,-123.598,48.841,1.2636,100726.86
1.731,0.3701,0.2974,181.037,-48.963,29.939,1.7949,100727.24
1.3584,0.5767,0.3408,222.134,42.012,62.256,1.5146,100727.27
1.0352,0.2944,0.3213,209.512,73.293,41.707,1.1232,100727.28
1.127,0.2305,0.4541,193.659,33.232,11.159,1.2367,100727.28
1.0752,0.0176,0.2373,135.793,-1.89,23.232,1.1012,100726.94
0.8101,-0.3511,-0.2085,99.756,29.756,43.841,0.9071,100726.79
0.6265,-0.2041,-0.0225,123.841,77.195,55.854,0.6593,100726.93
0.1865,0.0376,0.1294,93.902,19.329,127.683,0.2301,100726.3
0.6587,0.2622,0.0186,62.073,-43.232,74.146,0.7092,100725.72
0.9946,-0.0898,-0.1021,83.963,-19.451,0.0,1.0039,100726.23
1.6592,0.3892,0.4019,223.963,-54.695,-35.61,1.7509,100726.24
1.6133,0.6987,0.8242,228.963,-8.963,-31.463,1.9417,100725.64
0.9375,0.2202,0.5103,129.451,46.28,-5.427,1.0898,100725.08
0.6113,0.1919,0.5991,72.439,35.183,12.561,0.8772,100725.64
0.4683,0.1025,0.3101,-25.854,-0.244,36.829,0.5709,100725.7
0.5396,-0.0464,-0.2759,-37.5,-26.098,51.341,0.6078,100725.61
1.0493,0.103,-0.1841,91.037,-47.073,21.402,1.0703,100726.12
1.7109,0.4092,-0.0034,227.134,-92.744,5.244,1.7592,100725.69
1.9741,0.8286,0.2188,323.537,-29.146,-27.5,2.1521,100725.34
1.5713,0.582,0.2388,297.317,121.524,-28.415,1.6925,100725.8
0.7383,0.1333,0.0474,231.098,134.695,23.659,0.7517,100725.57
0.4883,-0.0386,0.2803,192.927,56.463,11.28,0.5643,100725.13
0.5293,-0.1499,0.3535,107.5,-22.988,9.146,0.6539,100725.14
0.5234,-0.2388,0.085,19.817,-76.341,40.61,0.5816,100725.05
0.7896,-0.1157,-0.1514,-26.22,-53.659,52.134,0.8122,100725.6
0.8599,-0.0479,-0.377,-31.402,9.939,51.341,0.9401,100726.14
1.0332,-0.1206,-0.1938,14.756,4.024,24.085,1.0581,100726.05
1.1963,0.1782,0.1416,77.256,-11.768,-1.89,1.2178,100725.97
1.4849,0.6982,0.8018,122.073,10.61,-59.695,1.8262,100728.06
1.5044,0.5859,0.7212,54.39,0.61,-92.134,1.7682,100728.45
1.2241,0.0732,0.1792,-15.122,-15.854,-75.976,1.2393,100728.46
0.9805,-0.1958,-0.1821,-33.354,2.927,-36.159,1.0163,100728.95
0.5688,-0.2998,-0.6895,-26.463,35.488,35.183,0.9428,100728.21
0.4209,-0.0107,-0.5005,69.512,67.439,43.476,0.654,100727.63
0.8237,0.335,-0.0845,125.427,31.829,33.415,0.8932,100727.53
1.23,0.3511,0.1167,154.939,-13.963,34.634,1.2844,100728.09
1.6924,0.7554,0.4893,204.939,-3.293,2.378,1.9168,100727.75
1.748,0.5605,0.3389,174.878,10.488,-4.451,1.8667,100728.36
1.3286,0.3389,0.3193,155.732,34.451,-2.5,1.4078,100728.3
0.8325,0.1455,0.3545,92.805,29.817,23.78,0.9165,100728.16
0.4365,-0.2603,0.1694,19.817,38.659,23.72,0.5357,100728.03
0.394,-0.3628,0.1494,-11.585,12.866,31.463,0.5561,100728.05
0.522,-0.2754,0.0845,-53.415,-4.817,55.0,0.5962,100727.63
0.6777,-0.1196,0.001,-82.378,-1.707,71.037,0.6882,100726.8
0.7808,0.1406,0.0508,-80.427,-31.341,60.244,0.7949,100726.55
1.1685,0.2896,0.5166,-72.317,-83.963,5.488,1.31,100726.71
1.4517,0.4526,0.3169,-81.037,-92.805,-35.305,1.5533,100726.96
1.5469,0.4355,0.2729,-44.207,-57.256,-74.268,1.63,100727.28
0.9917,0.3164,0.1973,-24.451,7.256,-70.488,1.0595,100727.38
0.6343,0.354,0.1963,-20.061,40.183,-78.415,0.7524,100727.11
0.7568,0.2925,0.0107,-75.915,-7.927,-63.476,0.8115,100727.01
0.8047,-0.0874,-0.5732,-117.256,-46.341,8.171,0.9919,100726.47
0.9141,-0.0366,-0.6055,-18.354,11.28,40.488,1.097,100726.9
1.0264,0.2681,-0.2163,106.707,82.134,39.756,1.0826,100726.89
1.0649,0.6104,0.3472,180.915,84.329,7.927,1.2756,100726.88
1.4468,0.7036,0.5835,165.549,-7.195,-30.183,1.7113,100726.6
1.4238,0.6104,0.3804,95.549,-51.829,-10.122,1.5951,100726.52
0.9355,0.2871,0.1914,17.561,9.207,-5.305,0.9972,100727.44
0.623,-0.1411,-0.0186,-41.402,11.768,2.317,0.6391,100727.27
0.6016,-0.3013,-0.0708,-76.89,-28.293,32.866,0.6765,100727.35
0.6143,-0.2051,-0.0166,-98.72,-28.537,65.488,0.6478,100727.33
0.7681,0.0308,-0.0713,-121.951,-13.72,96.524,0.772,100727.28
0.6538,-0.0083,-0.2354,-106.098,26.768,98.902,0.6949,100726.77
0.9136,0.167,0.624,-41.159,23.841,4.817,1.1189,100726.86
1.3999,0.291,0.4004,-63.902,-76.646,-28.72,1.4848,100727.01
1.6938,0.3149,0.2617,-14.878,-48.354,-61.037,1.7426,100727.64
1.4517,0.2842,0.4268,34.756,97.622,-74.451,1.5395,100727.25
1.2788,0.2178,0.5166,34.512,156.28,-55.671,1.3963,100726.58
0.7651,0.1597,0.167,-39.146,95.671,-6.768,0.7993,100725.92
0.3853,-0.0894,-0.4907,-113.902,2.195,40.366,0.6302,100726.04
0.3159,-0.0669,-0.498,-49.878,-32.073,57.195,0.5936,100726.61
0.729,0.3066,-0.042,51.22,-15.488,37.378,0.792,100725.91
1.1772,0.4419,0.439,108.598,5.915,27.012,1.3319,100726.13
1.4541,0.5381,0.8647,140.976,15.976,3.78,1.7753,100726.41
1.502,0.459,0.8921,101.159,0.0,-11.463,1.8062,100726.22
1.1812,0.0112,0.3438,37.256,-21.22,1.524,1.2302,100726.58
0.8491,-0.1787,0.1191,30.305,-3.232,5.915,0.8759,100725.99
0.4463,-0.3735,-0.0869,-57.195,-30.0,30.793,0.5884,100725.07
0.6289,-0.2197,-0.0664,-87.683,-56.524,47.317,0.6695,100725.55
0.8516,-0.0503,-0.1821,-99.024,-53.415,53.537,0.8723,100724.58
1.0522,0.021,0.3423,-18.11,-11.524,16.341,1.1067,100724.8
1.2627,0.3169,0.8374,26.28,7.927,-32.683,1.5479,100724.21
1.2432,0.251,0.4956,14.695,38.049,-70.549,1.3616,100724.48
0.7603,0.1353,0.4351,7.5,76.159,-69.512,0.8863,100724.83
0.687,0.0811,0.2456,-54.573,-4.695,-50.305,0.7341,100725.0
0.5903,-0.0762,-0.228,-105.0,-60.976,7.195,0.6374,100725.0
0.4907,0.2305,-0.1567,-53.11,-23.902,34.085,0.5644,100725.74
0.7861,0.1646,-0.4268,-19.39,-46.585,47.927,0.9095,100725.83
1.2036,0.2339,0.0117,109.207,-30.915,37.866,1.2262,100725.75
1.5366,0.8047,0.9263,172.073,39.756,-16.159,1.9664,100725.55
1.7495,0.3623,0.5186,71.707,18.72,-15.671,1.8604,100725.99
1.5063,0.1348,0.2915,49.817,42.073,0.976,1.5402,100726.45
0.8491,-0.0986,0.1611,27.317,75.0,20.183,0.8699,100726.39
0.3486,-0.3862,0.0352,-16.22,45.61,33.963,0.5215,100726.38
0.1982,-0.2534,-0.0015,-66.951,-10.549,41.707,0.3217,100725.16
0.3779,-0.2002,0.0215,-115.549,-45.976,31.463,0.4282,100724.86
0.7632,-0.1357,-0.1372,-132.195,-70.793,29.268,0.7872,100724.85
1.1318,0.1953,0.562,-45.427,-42.256,-16.28,1.2787,100724.12
1.5503,0.4082,1.106,-31.037,-31.768,-71.951,1.9476,100724.05
1.6763,0.4565,0.8076,-46.098,-22.805,-94.756,1.9159,100724.11
1.3394,0.2593,0.3374,-59.573,9.512,-81.098,1.4053,100724.39
0.9507,-0.1167,-0.1973,-81.098,22.073,-37.866,0.9779,100724.69
0.6553,-0.1284,-0.6152,-62.073,12.195,17.439,0.908,100724.92
0.3604,-0.0244,-0.2959,-14.207,17.5,66.951,0.4669,100724.97
0.4385,0.2051,-0.061,1.159,-24.512,73.293,0.4879,100724.9
0.8999,0.0601,-0.2036,17.5,-76.22,56.402,0.9246,100725.2
1.269,0.4751,0.9102,145.061,-16.098,6.037,1.6324,100725.29
1.5576,0.7798,1.3462,91.037,1.951,-29.817,2.2015,100725.24
1.4268,0.0581,0.4106,-35.671,-14.512,-19.817,1.4858,100726.3
0.96,-0.1387,0.1899,-35.915,16.829,-27.683,0.9883,100725.75
0.5854,-0.3286,0.2344,-69.268,-11.646,-29.695,0.7111,100726.45
0.3374,-0.4551,0.0952,-145.915,-36.768,-10.427,0.5745,100726.12
0.1714,-0.4502,0.0449,-202.012,-35.305,4.512,0.4838,100726.13
0.603,-0.4141,0.2314,-221.098,-66.28,-12.622,0.7672,100725.27
1.5967,-0.3013,0.5737,-167.256,-74.695,-54.207,1.7232,100725.22
2.0317,-0.0449,1.2661,-104.207,-47.805,-90.793,2.3944,100725.19
1.5796,0.2812,0.9346,-120.488,-23.598,-68.963,1.8568,100725.16
0.8198,0.2422,0.6909,-127.622,9.634,-68.11,1.0992,100724.88
0.686,0.3228,0.5708,-170.488,-36.341,-78.476,0.949,100725.04
0.6353,0.145,-0.2461,-248.11,-85.671,-27.927,0.6965,100724.18
0.3652,0.0493,-0.3794,-202.927,-46.524,7.622,0.5289,100725.24
0.6338,0.1816,-0.0576,-149.817,-62.256,7.561,0.6618,100725.2
0.8481,0.0317,-0.0239,-105.183,-33.963,11.402,0.8491,100724.78
1.1748,0.3701,0.7754,-27.439,-6.037,-31.463,1.4555,100725.45
1.6235,0.1973,0.5889,-81.341,-38.78,-48.171,1.7383,100725.95
1.8481,0.0,0.4878,-59.451,5.122,-50.915,1.9114,100725.83
1.6001,0.2334,0.793,-32.744,59.146,-52.622,1.801,100726.62
1.1025,-0.1309,0.3359,-109.939,14.39,-31.037,1.16,100725.74
0.7134,-0.4565,-0.0122,-150.61,-30.122,6.28,0.847,100726.03
0.3105,-0.4175,0.0537,-163.963,-3.049,27.927,0.5231,100726.25
0.147,-0.1743,0.2632,-187.622,-9.939,26.402,0.3482,100726.02
1.2939,0.4478,0.7427,-158.293,-53.171,-72.134,1.5577,100724.47
1.4556,0.6987,0.814,-117.927,-26.585,-102.439,1.8082,100724.31
1.5537,0.7134,0.814,-83.232,-18.171,-121.28,1.8935,100724.77
1.5679,0.4082,0.4277,-111.159,-11.89,-89.329,1.6757,100724.76
0.9233,-0.1011,-0.209,-119.451,15.61,-26.951,0.9521,100724.61
0.4312,-0.126,-0.2017,-62.805,27.317,-2.256,0.4924,100725.12
0.2715,0.0889,-0.0342,-36.463,4.39,12.439,0.2877,100726.34
0.5088,0.2993,0.0405,-29.451,-23.354,15.732,0.5917,100726.52
1.0938,0.4336,0.1743,-27.073,-53.659,4.268,1.1894,100726.82
1.5054,0.1152,0.002,-21.89,-58.537,7.195,1.5098,100726.77
1.6138,0.2002,0.1895,49.329,-0.793,-5.976,1.6371,100727.23
1.5762,0.3945,0.6416,78.415,18.415,-23.537,1.7469,100728.16
1.1685,0.1089,0.4487,10.549,3.11,-13.171,1.2564,100728.45
0.6006,-0.3242,-0.0322,-60.183,-8.293,17.988,0.6833,100728.09
0.23,-0.4224,-0.1553,-85.915,6.89,38.415,0.5054,100728.31
0.1885,-0.1157,0.269,-82.256,11.768,22.073,0.3483,100728.72
0.481,0.0537,0.5244,-139.695,-56.768,4.634,0.7136,100727.21
0.8169,0.1387,0.0186,-185.732,-119.939,9.451,0.8288,100727.2
1.4722,0.2607,0.2549,-128.415,-95.488,-24.268,1.5167,100727.09
1.6147,0.168,0.1602,-81.829,-12.073,-18.659,1.6313,100728.88
1.4478,0.3535,0.542,27.744,60.427,-42.561,1.5858,100729.26
1.4346,0.7285,0.9092,55.549,18.598,-63.78,1.8481,100729.02
1.0737,0.2598,0.0913,-34.024,-13.841,-36.829,1.1085,100729.55
0.6489,-0.1816,-0.5635,19.817,0.0,36.402,0.8784,100727.5
0.2612,0.1914,-0.1431,85.488,39.756,71.829,0.354,100727.08
0.3677,0.3555,0.207,75.854,-1.098,66.646,0.5517,100728.22
1.0352,0.3574,0.6055,51.524,-47.561,29.329,1.2514,100728.22
1.3672,0.4126,0.5928,20.427,-27.439,-14.024,1.5462,100727.6
1.6787,0.3384,0.2642,0.122,-40.061,-52.317,1.7327,100728.19
1.6338,0.106,-0.0669,0.854,-41.341,-37.195,1.6386,100728.27
0.8579,-0.1431,-0.2798,32.317,38.659,1.829,0.9137,100728.82
0.4673,-0.1421,0.1362,59.939,61.28,10.0,0.5071,100728.12
0.5059,-0.0957,0.3164,-12.805,-9.146,34.878,0.6043,100727.48
0.5967,-0.0645,0.1099,-96.89,-69.878,58.415,0.6101,100727.77
0.9229,0.1206,-0.249,-122.622,-90.732,67.683,0.9634,100727.45
1.1709,0.2188,0.3457,14.573,61.585,9.329,1.2403,100726.5
1.3672,0.4717,0.5015,31.098,60.549,-53.72,1.5307,100727.37
1.5479,0.1997,0.2749,7.622,17.988,-64.878,1.5847,100727.42
1.2275,-0.0605,-0.1899,-7.5,39.39,-34.512,1.2436,100727.08
0.7632,-0.1851,-0.4434,5.61,22.805,24.39,0.9018,100727.55
0.4556,0.0879,-0.0151,48.354,0.305,75.122,0.4642,100728.53
0.4028,0.2954,0.2227,32.5,-3.78,65.793,0.5469,100728.06
0.7397,-0.021,0.0356,3.232,-46.22,26.829,0.7409,100727.31
1.3965,0.0566,0.1978,56.28,-87.256,-25.183,1.4116,100727.7
2.0107,0.2832,0.3491,96.768,-95.549,-38.232,2.0604,100727.88
1.4326,0.1313,0.125,91.402,15.793,5.061,1.444,100727.99
0.7124,-0.0566,0.1699,86.098,105.488,26.28,0.7346,100727.49
0.3364,-0.0352,0.4624,25.61,62.744,27.378,0.5729,100727.2
0.2139,-0.1543,0.0659,-103.598,-32.866,22.866,0.2718,100726.52
0.5991,-0.1919,-0.2852,-163.902,-91.951,13.354,0.6907,100726.24
1.0542,-0.0605,-0.5278,-162.134,-87.683,33.78,1.1805,100726.39
1.064,-0.2622,-0.3335,-55.976,3.049,35.671,1.1454,100727.02
1.2881,0.167,0.6855,75.732,68.11,-37.805,1.4687,100727.74
1.7178,0.6123,0.9194,69.207,-2.744,-77.195,2.0423,100727.76
1.3623,0.1597,0.1812,0.793,-39.939,-47.866,1.3835,100728.02
0.9175,-0.1919,-0.3032,-0.427,12.683,-29.939,0.9852,100729.06
0.6963,-0.2656,-0.4438,24.878,49.634,2.073,0.8674,100729.11
0.2686,-0.0122,-0.1597,58.537,77.073,44.451,0.3127,100728.02
0.3643,0.3901,0.1504,21.402,30.793,37.317,0.5545,100727.82
0.9932,0.0776,-0.2188,-33.78,-80.366,32.256,1.0199,100727.43
1.6655,0.2925,0.5352,58.963,-30.305,-20.976,1.7737,100728.48
1.8765,0.394,0.4233,46.646,-33.72,-33.963,1.9636,100729.35
1.5767,0.1045,-0.106,38.171,-47.378,-28.11,1.5837,100729.53
0.8315,0.0083,-0.2222,72.5,13.171,-14.878,0.8608,100728.92
0.3203,-0.1406,-0.0845,83.171,54.695,-11.037,0.3599,100729.09
0.4395,-0.1929,0.123,44.756,29.817,0.732,0.4954,100728.38
0.478,-0.1064,0.0371,-29.878,-11.098,36.646,0.4911,100729.05
0.8071,-0.0742,-0.1577,-80.061,-57.866,54.207,0.8257,100727.98
1.1738,-0.168,-0.5293,-49.695,-64.207,66.585,1.2986,100727.76
1.4722,0.1196,0.4214,94.085,34.878,5.0,1.536,100727.59
1.6689,0.5474,0.9146,103.78,62.195,-37.378,1.9802,100728.41
1.4341,0.2852,0.3945,34.817,27.439,-36.829,1.5145,100729.03
0.8203,0.1738,0.0581,20.244,35.915,-41.524,0.8405,100728.98
0.5439,-0.0625,-0.2158,-2.927,33.78,-54.085,0.5885,100729.07
0.6445,-0.2061,-0.5713,-12.683,32.317,-27.134,0.8856,100728.43
0.5063,0.1147,-0.2627,44.573,22.927,37.866,0.5819,100728.03
0.6353,0.3857,0.085,68.415,-43.598,63.963,0.748,100727.98
1.1221,0.3447,-0.0859,95.488,-53.171,62.5,1.177,100726.98
1.3315,0.7422,0.6973,210.549,39.939,45.0,1.6763,100727.68
1.5444,0.7227,0.6685,161.159,31.646,14.512,1.8315,100728.16
1.6636,0.2329,0.0522,122.5,14.085,-4.207,1.6806,100728.42
1.2729,0.1602,0.1211,154.878,75.61,-1.22,1.2887,100728.36
0.6943,-0.314,-0.123,124.878,103.476,23.171,0.7719,100728.2
0.2959,-0.1553,0.103,114.085,60.549,54.207,0.3497,100727.81
0.1899,-0.0244,0.1646,47.439,-25.427,63.72,0.2525,100727.65
0.4336,-0.0674,-0.1636,15.488,-61.22,47.378,0.4683,100727.63
0.9941,0.4561,0.418,95.0,-17.439,2.256,1.1709,100727.75
1.5396,0.6914,0.8315,119.634,-6.159,-30.61,1.8814,100727.92
1.6772,0.5317,0.7437,109.146,10.61,-27.5,1.9102,100728.32
1.1558,0.0737,0.2471,79.756,60.976,26.402,1.1842,100728.41
0.4443,-0.0024,-0.042,79.451,82.073,57.134,0.4463,100728.29
0.5317,0.0659,-0.0229,86.951,-4.573,65.427,0.5363,100727.96
0.9297,0.3774,-0.1284,105.793,-60.976,91.768,1.0116,100727.38
1.1489,0.4741,-0.3867,171.28,-13.049,91.463,1.3017,100728.02
1.2812,0.9893,0.813,316.037,52.317,37.683,1.8114,100727.4
1.9639,1.2432,1.4409,250.732,-22.683,-20.793,2.7347,100727.05
1.6826,0.1216,0.1646,81.951,-27.378,-14.207,1.695,100726.56
0.813,-0.2739,-0.5312,90.0,56.098,8.049,1.0091,100726.8
0.4595,-0.0801,-0.2935,145.915,92.073,14.512,0.551,100727.83
0.6045,-0.1118,-0.0493,152.866,56.341,24.451,0.6167,100726.74
0.7017,0.0596,0.1504,122.073,13.354,51.524,0.7201,100726.32
0.7485,0.0869,-0.0391,56.037,-14.878,90.122,0.7546,100725.65
0.8638,0.2095,0.0171,63.78,-11.707,107.134,0.889,100726.59
1.2202,0.2378,0.4922,66.22,-4.329,71.341,1.3371,100726.81
1.3584,-0.0552,0.2793,37.988,7.5,48.598,1.3879,100727.11
1.355,0.2153,0.6367,103.354,44.085,4.573,1.5125,100728.17
1.4146,0.3535,0.793,77.439,37.5,-46.463,1.6597,100728.73
0.9756,-0.1582,-0.1836,-19.146,13.963,-25.366,1.0052,100728.53
0.6138,-0.3438,-0.5488,-9.634,22.134,20.488,0.8922,100728.35
0.478,-0.0903,-0.1431,60.244,65.305,40.671,0.5071,100728.97
0.6226,0.1904,0.5117,97.134,67.195,22.561,0.8281,100728.69
1.0552,0.1455,0.874,84.024,-14.878,-10.122,1.3779,100729.36
1.7549,0.3779,0.6968,78.841,-123.415,-30.427,1.9256,100729.0
1.8408,0.1299,0.2534,87.439,-101.341,-12.5,1.8627,100729.45
0.9873,-0.0527,0.2212,122.195,24.268,23.354,1.0132,100729.21
0.3169,-0.0938,0.3438,90.854,51.585,28.659,0.4768,100728.88
0.2788,-0.3018,0.251,0.122,-17.683,8.841,0.4814,100728.6
0.5674,-0.3159,-0.1245,-80.793,-68.902,10.0,0.6612,100728.16
0.7612,-0.2715,-0.2974,-92.805,-70.488,35.793,0.8612,100729.16
1.0493,0.0669,0.0508,-37.866,-71.098,55.61,1.0527,100729.16
1.3804,0.2495,0.8271,-0.244,-38.963,29.39,1.6285,100728.45
1.395,0.1548,0.6377,-29.146,-13.963,-4.756,1.5417,100728.02
1.2734,0.0898,0.5674,4.573,42.195,-48.537,1.397,100727.82
0.4365,-0.1177,0.1094,-25.549,77.866,-45.0,0.4651,100727.17
0.3516,-0.1558,-0.189,-47.378,3.841,-52.622,0.4284,100727.66
0.5718,-0.2441,-0.2422,-35.183,-19.207,-27.073,0.6672,100727.77
0.9531,0.3276,0.0415,20.366,4.756,20.488,1.0087,100727.47
1.3169,0.3521,0.4834,82.5,5.732,7.988,1.4463,100727.49
1.584,0.5972,0.8291,98.902,5.0,-16.768,1.8849,100728.23
1.6084,0.1948,0.3628,47.866,-14.329,-8.598,1.6603,100728.41
1.2051,-0.1138,0.1533,54.329,42.073,16.037,1.2201,100728.05
0.6909,-0.2339,0.1978,46.463,78.476,34.634,0.7558,100728.05
0.3379,-0.314,-0.0234,-20.61,17.317,44.024,0.4618,100727.3
0.3652,-0.2827,-0.2002,-68.902,-53.902,41.829,0.5034,100726.49
0.7505,-0.0361,-0.0337,-80.793,-87.683,46.22,0.7521,100726.76
1.0205,0.0527,0.0698,-58.049,-56.159,54.634,1.0243,100727.05
1.2529,0.0977,0.9009,1.768,11.22,8.415,1.5463,100727.03
1.4497,0.2622,1.061,1.646,12.073,-46.28,1.8155,100727.5
1.8965,0.1851,0.6958,-6.585,-24.146,-69.756,2.0286,100728.02
1.1055,-0.1001,-0.0493,-2.317,72.256,-22.561,1.1111,100728.05
0.4639,-0.1328,-0.2339,16.098,102.927,7.439,0.5362,100728.09
0.4443,-0.2529,-0.3027,-6.707,39.146,29.695,0.5942,100727.98
0.2471,0.1372,-0.0015,14.817,11.28,45.488,0.2826,100727.54
0.6763,0.2593,0.1201,-3.72,-76.159,24.878,0.7342,100727.55
1.2632,0.3242,0.4893,57.439,-71.341,20.61,1.3929,100726.94
1.4233,0.564,1.0532,111.646,44.024,6.098,1.8583,100727.94
1.6538,-0.0239,0.522,81.22,-1.28,9.146,1.7344,100728.76
1.1304,-0.2983,0.2173,48.476,29.817,48.11,1.1891,100728.33
0.2378,-0.394,-0.0557,0.671,59.207,72.988,0.4636,100728.27
-0.0991,-0.2993,-0.4624,-76.22,-4.024,52.439,0.5597,100727.38
0.2944,-0.2944,-0.3369,-91.585,-70.122,9.451,0.5356,100727.05
0.7407,-0.022,-0.0928,-52.378,-64.634,-10.122,0.7468,100725.95
1.1987,0.1694,1.0703,46.28,-41.707,-43.72,1.6159,100726.68
1.6548,0.5947,1.8159,43.659,-16.463,-90.793,2.5278,100727.0
1.8169,0.3657,1.1367,-40.976,-4.817,-115.854,2.1742,100727.09
1.1934,-0.186,0.1826,-60.183,65.549,-82.683,1.2215,100728.02
0.689,-0.1343,0.019,-26.402,93.293,-49.634,0.7022,100727.98
0.4648,-0.2227,-0.3198,-59.085,41.524,-9.512,0.6066,100728.19
0.252,0.0435,-0.1108,-40.61,6.707,14.268,0.2787,100727.51
0.4917,0.3359,0.1108,-48.72,-61.463,10.427,0.6057,100727.21
1.0928,0.2993,-0.2251,-34.207,-104.451,13.902,1.1552,100727.12
1.6567,0.644,0.7734,112.195,-17.805,2.378,1.9385,100728.01
1.873,0.6235,1.0801,111.28,43.963,-11.402,2.2503,100728.2
1.8003,0.187,0.4922,53.841,7.866,3.72,1.8757,100728.09
1.0864,-0.1567,-0.0176,27.256,27.378,43.049,1.0978,100728.12
0.0591,-0.4741,-0.2749,-4.939,64.268,73.902,0.5512,100728.02
-0.2627,-0.4058,-0.3228,-44.695,15.671,50.244,0.5812,100726.46
0.5078,-0.3159,0.165,-76.463,-77.378,-15.244,0.6204,100726.28
1.126,-0.1357,0.2241,-129.817,-92.622,-7.134,1.1561,100725.78
1.1748,-0.1826,0.7085,-70.183,-37.317,1.463,1.384,100725.25
1.3511,0.1646,1.5942,-19.878,-0.305,-45.488,2.0962,100725.93
1.7222,0.2441,1.0884,-79.451,-5.183,-84.024,2.0518,100725.7
1.3252,0.0015,0.166,-99.085,21.829,-58.841,1.3356,100726.39
0.5874,-0.0513,-0.3911,-90.915,34.207,-25.061,0.7076,100725.44
0.3853,-0.1548,-0.5298,-77.195,-0.366,-9.329,0.6731,100726.06
0.3975,0.0742,-0.0547,-43.415,-15.671,6.22,0.408,100726.16
0.6416,0.2764,0.085,-48.171,-71.89,5.976,0.7037,100725.98
1.3218,0.1553,0.3701,13.11,-99.024,-4.146,1.3814,100726.59
1.6211,0.5811,1.4741,99.878,1.829,3.963,2.2668,100725.93
1.4019,0.2085,0.7993,-9.573,45.976,19.451,1.6271,100725.8
1.0293,-0.4102,-0.0786,-50.915,45.427,27.5,1.1108,100725.48
0.5967,-0.436,0.019,-30.61,56.22,24.695,0.7393,100725.34
0.2397,-0.5498,-0.0308,-82.256,17.378,13.963,0.6006,100726.25
0.2056,-0.3906,0.2607,-128.659,-22.012,-10.244,0.5127,100726.55
0.5747,-0.3291,0.4253,-201.402,-66.768,-46.524,0.7871,100726.41
1.2075,-0.9731,0.3838,-170.183,-60.61,-55.793,1.5976,100725.93
1.0537,-0.335,1.7583,-49.268,47.805,-84.878,2.077,100727.39
0.9824,0.0728,1.0039,-135.732,3.415,-147.5,1.4065,100726.66
1.606,0.1226,0.8838,-128.598,-48.293,-178.78,1.8372,100726.61
1.3804,0.1929,0.9829,-142.256,22.317,-133.049,1.7055,100726.81
0.8667,0.1064,0.1846,-219.634,17.378,-83.415,0.8925,100726.34
0.4243,0.0142,-0.29,-230.183,-11.585,-48.537,0.5142,100725.73
0.2441,0.2388,0.0068,-190.183,-41.585,-39.39,0.3416,100725.54
0.4854,0.1084,0.0073,-186.037,-94.756,-34.024,0.4974,100725.99
0.9385,0.0234,0.353,-113.11,-72.378,-39.207,1.003,100726.8
1.458,0.0776,0.9385,-55.061,-27.073,-52.195,1.7357,100727.26
1.644,-0.1069,0.853,-51.524,15.732,-54.268,1.8553,100728.0
1.6904,0.0088,1.0,-22.927,32.378,-59.939,1.9641,100729.02
1.4512,-0.0283,0.6001,-78.78,18.11,-60.854,1.5706,100728.59
0.9551,-0.4263,-0.252,-143.232,-0.976,-40.427,1.0758,100728.76
0.499,-0.3472,-0.2393,-129.207,-6.341,-24.207,0.6533,100728.25
0.2939,-0.1953,0.0923,-152.378,-52.012,-35.061,0.3648,100727.26
0.3174,-0.0918,0.1914,-204.756,-107.683,-45.976,0.3818,100726.25
0.5239,0.0522,0.1045,-227.073,-129.817,-51.585,0.5368,100726.07
1.0229,0.125,0.5522,-159.817,-130.305,-68.049,1.1692,100726.45
1.7212,0.3657,1.2104,-98.902,-89.817,-75.793,2.1358,100726.2
2.1338,0.4062,1.4404,-73.659,-4.634,-69.451,2.6063,100726.52
1.6973,0.1675,1.2979,-88.72,91.22,-45.976,2.1432,100726.23
0.9263,-0.0498,0.0859,-165.671,91.89,-14.024,0.9316,100727.27
0.5835,-0.3384,-0.8735,-153.902,33.11,29.939,1.1036,100726.79
0.1021,-0.0269,-0.5039,-22.561,60.793,62.195,0.5148,100726.21
-0.0205,0.3877,0.085,10.305,-0.244,37.683,0.3974,100726.73
0.6821,0.3188,0.1182,-49.695,-125.488,-9.634,0.7622,100726.27
1.3481,0.2051,0.3726,-20.061,-86.585,-17.988,1.4136,100726.91
1.3208,0.3296,0.7329,30.244,13.354,-13.171,1.5461,100726.77
1.668,0.0649,0.731,40.854,-11.098,-35.488,1.8223,100726.03
1.0249,-0.1704,0.3813,-13.11,30.793,-11.89,1.1067,100726.95
0.5303,-0.5332,-0.2222,-79.329,-4.512,21.22,0.7841,100727.28
0.0903,-0.3311,-0.2617,-85.915,-7.256,38.902,0.4316,100727.16
0.0229,-0.1021,0.2285,-91.951,-38.11,7.805,0.2513,100728.18
0.6416,0.1152,0.2769,-142.927,-105.61,-22.378,0.7082,100727.11
1.3989,0.2749,0.3169,-121.585,-112.561,-36.22,1.4605,100728.12
2.0205,0.1978,0.5151,-81.524,-75.671,-32.927,2.0945,100727.55
1.8472,0.1611,0.5449,-33.415,22.439,-16.28,1.9326,100727.61
1.4702,0.1445,0.6562,-0.854,40.61,-12.378,1.6165,100727.3
0.8369,0.1362,0.1987,-33.78,49.268,-11.768,0.8709,100727.3
0.4536,-0.2256,-0.606,-57.195,28.171,1.159,0.7898,100727.77
0.2988,-0.1694,-0.4438,24.268,9.451,39.512,0.5613,100727.13
0.3374,0.2949,0.3003,77.805,-9.024,46.463,0.5394,100726.55
0.8784,0.2334,0.3506,27.378,-80.671,34.939,0.9742,100726.38
1.4321,0.1724,0.6396,46.098,-58.537,22.378,1.5779,100726.95
1.2681,0.2861,0.7246,62.073,25.183,10.549,1.4883,100727.27
1.4819,0.1802,0.4775,45.244,-11.951,-33.049,1.5674,100727.61
1.6274,0.0107,0.0483,25.854,-33.354,-29.634,1.6282,100727.82
0.7803,-0.2163,-0.3457,32.988,60.854,29.146,0.8804,100726.89
0.0415,-0.1436,-0.1123,48.11,71.037,45.854,0.1869,100726.7
0.1982,-0.0542,0.1079,-9.146,-38.598,15.549,0.2321,100727.02
0.7412,-0.0137,0.1011,-76.524,-107.561,-1.098,0.7482,100726.66
1.1421,-0.0342,-0.1182,-76.402,-85.427,18.841,1.1487,100726.61
1.4263,0.0571,0.7891,-5.793,-26.646,4.878,1.631,100727.41
1.4644,0.1001,0.6738,-41.951,-1.829,-16.951,1.6151,100727.17
1.5308,-0.0107,0.2524,-35.549,6.22,-46.341,1.5515,100727.84
1.3774,0.0835,0.231,5.183,40.732,-34.451,1.3992,100727.95
0.8501,-0.0225,-0.1484,-4.939,93.171,-2.134,0.8633,100727.67
0.4976,-0.2563,-0.4731,0.366,73.963,39.146,0.7329,100727.45
0.3403,0.1108,0.1177,54.024,49.451,57.744,0.3768,100727.04
0.4121,0.373,0.2993,21.524,-4.756,34.878,0.6313,100726.99
0.9375,0.0142,0.0986,6.829,-61.524,-4.573,0.9428,100726.7
1.5293,0.1865,0.6523,88.293,-38.11,-35.122,1.673,100727.21
1.9346,0.2153,0.833,90.732,-5.793,-30.244,2.1173,100728.57
1.5161,-0.0903,0.3125,60.305,42.439,10.915,1.5506,100727.98
0.8628,-0.0654,0.1011,53.72,45.549,32.988,0.8712,100728.3
0.4761,-0.2241,-0.1299,3.72,7.805,36.646,0.542,100727.3
0.1895,-0.2827,-0.3584,-37.378,-12.683,41.524,0.4942,100727.91
0.2744,-0.0625,-0.1548,-49.39,-47.134,22.927,0.3212,100727.36
0.8115,-0.0068,-0.1562,-80.061,-101.28,5.854,0.8265,100726.55
1.292,-0.0547,0.332,-22.012,-74.024,-9.39,1.3351,100726.62
1.5142,0.2334,1.1123,19.756,0.366,-38.598,1.8932,100727.27
1.7632,0.3203,0.8804,-20.549,20.671,-74.085,1.9966,100727.52
1.5894,-0.0454,0.0859,-34.329,41.159,-52.622,1.5923,100727.44
0.5898,-0.1572,-0.2285,2.622,124.268,-5.671,0.6518,100727.38
0.2373,-0.2217,-0.3662,0.427,54.329,11.037,0.4895,100727.95
0.397,-0.0088,0.0059,25.122,-13.11,15.915,0.3971,100728.01
0.7437,0.4976,0.271,18.415,-44.268,8.598,0.9349,100727.43
1.1885,-0.04,-0.0986,15.671,-57.866,5.305,1.1932,100727.1
1.5972,0.4878,0.8472,142.012,4.817,-11.829,1.8726,100727.95
1.8462,0.3589,0.7305,94.512,3.354,-14.268,2.0176,100727.96
1.5435,-0.0107,0.123,67.683,25.183,13.963,1.5484,100727.73
0.8809,-0.0439,-0.001,79.268,68.78,42.439,0.882,100727.41
0.3604,-0.2534,-0.2012,39.573,44.451,52.561,0.4843,100726.83
0.2217,-0.1025,-0.2656,0.915,-35.427,50.366,0.3609,100726.38
0.4272,0.0029,-0.145,-22.378,-90.793,34.39,0.4512,100726.41
0.9155,-0.0454,-0.1641,-26.585,-103.354,29.207,0.9312,100726.83
1.2759,0.0171,0.4609,63.415,-29.634,17.622,1.3567,100727.14
1.519,0.4668,1.5288,111.341,45.61,-17.5,2.2051,100727.82
1.5493,0.3452,1.1118,26.646,45.793,-54.939,1.938,100727.98
1.2715,0.0361,0.3286,-14.512,47.5,-57.5,1.3138,100727.48
0.8613,-0.022,-0.041,-12.439,65.915,-35.854,0.8626,100727.11
0.5938,-0.0884,-0.3364,-23.232,31.037,-0.61,0.6881,100726.92
0.4033,0.1021,-0.3643,-3.049,-6.098,29.451,0.553,100727.29
0.5815,0.3911,-0.0723,35.244,-76.098,55.183,0.7045,100726.22
1.0127,0.4766,-0.3276,70.183,-118.72,93.841,1.1662,100725.76
1.3154,0.6567,0.0649,238.72,-45.976,123.659,1.4717,100725.74
1.1714,1.1533,1.1851,342.012,69.024,107.988,2.0265,100725.5
1.3013,0.4927,0.9395,228.72,28.293,51.707,1.6789,100725.69
1.2178,0.1011,0.6362,164.878,3.902,15.976,1.3777,100725.91
0.585,-0.209,0.3438,73.598,10.122,15.183,0.7099,100725.48
0.2993,-0.5322,-0.439,-11.768,-64.634,27.622,0.752,100725.64
0.6265,-0.2275,-0.2686,41.28,-83.598,23.171,0.7186,100725.66
0.7144,0.0317,-0.3462,103.476,-40.122,42.622,0.7945,100726.03
1.2402,0.5444,0.3882,254.512,3.841,2.439,1.409,100726.66
1.8696,1.0264,1.3516,305.183,30.122,-35.305,2.525,100726.65
1.459,0.4829,0.7842,187.622,63.415,-0.793,1.7253,100727.49
0.6597,0.1318,0.2065,107.561,79.512,32.561,0.7037,100727.15
0.3721,0.1587,-0.0425,65.61,36.463,30.732,0.4067,100728.35
0.9707,0.0737,-0.5259,83.11,-65.183,32.927,1.1065,100727.83
1.3535,0.4644,0.334,225.122,9.817,25.854,1.4694,100727.73
1.5771,0.6353,0.4668,242.622,26.646,41.707,1.7632,100728.28
1.7871,0.5015,0.665,247.134,47.927,32.256,1.9717,100728.59
1.2168,0.2822,0.6738,189.878,108.537,33.232,1.4193,100728.59
0.5967,-0.2246,0.1318,90.366,64.146,21.585,0.651,100727.38
0.8662,-0.2505,0.0386,50.488,-20.549,-7.256,0.9025,100727.17
0.8613,-0.2534,-0.1768,-1.463,-12.805,13.537,0.9151,100727.26
0.4766,-0.3262,-0.3662,-11.768,8.78,43.72,0.6838,100726.98
0.6118,0.02,0.0,33.72,1.28,31.341,0.6121,100727.74
1.5879,0.1709,0.3979,-8.354,-49.268,-31.89,1.6459,100728.53
1.8369,0.395,0.6606,38.232,10.244,-34.634,1.9917,100729.23
1.2749,0.4331,0.7549,46.463,74.512,-27.927,1.5436,100729.62
0.6274,0.1567,0.1646,-11.951,39.695,-29.085,0.6673,100728.96
0.5708,-0.0703,-0.4863,-42.683,-31.402,-16.707,0.7532,100729.56
0.4746,-0.0181,-0.5679,30.732,-5.366,17.195,0.7403,100729.02
0.6104,0.2793,-0.0264,131.341,15.244,24.878,0.6717,100729.46
1.1616,0.439,0.7881,174.451,-24.207,1.89,1.4708,100729.19
1.9497,0.7144,1.2739,144.878,-45.305,-31.89,2.4361,100729.8
1.9536,0.3433,0.4702,75.244,-18.841,7.317,2.0385,100729.51
1.1929,0.1743,0.1211,95.061,67.866,62.805,1.2116,100729.02
0.4629,0.0557,0.1309,91.951,89.146,84.268,0.4842,100728.32
0.2017,-0.1821,0.2095,29.451,29.634,60.671,0.3431,100727.42
0.2954,-0.2217,-0.062,-61.951,-62.134,43.902,0.3745,100726.98
0.5298,-0.1172,-0.186,-98.72,-105.732,43.11,0.5736,100727.75
0.8828,0.0205,-0.1567,-85.122,-110.305,47.561,0.8969,100727.95
1.2349,0.0034,0.3945,-26.89,-60.793,32.988,1.2964,100728.48
1.228,0.1909,0.8198,8.354,17.744,5.305,1.4888,100728.37
1.3911,0.2866,0.7148,3.049,33.598,-44.024,1.5901,100728.17
1.3125,0.0786,0.2456,-0.244,39.268,-45.488,1.3376,100727.78
0.8042,0.0542,0.0376,29.146,99.634,-26.646,0.8069,100727.73
0.6489,0.0752,0.0581,28.354,79.939,-22.744,0.6558,100727.95
0.6025,-0.0747,0.0073,-12.134,16.646,-3.049,0.6072,100727.27
0.5288,0.0874,0.0376,-11.28,-22.988,30.549,0.5373,100726.88
0.7944,0.251,0.269,23.78,-41.707,27.012,0.8755,100726.7
1.1074,0.1689,0.5806,63.171,-35.671,-4.268,1.2617,100726.31
1.5425,0.3247,0.7368,74.939,-50.732,-39.207,1.74,100727.1
1.751,-0.0679,0.2002,34.024,-50.244,-26.037,1.7637,100726.62
1.1826,-0.1538,0.1396,61.28,48.476,26.28,1.2007,100726.74
0.541,-0.0708,0.1602,27.622,67.744,49.817,0.5686,100726.95
0.3521,-0.2236,-0.2349,-63.72,-10.0,48.72,0.4787,100727.95
0.646,0.0361,-0.1362,-90.366,-60.0,36.951,0.6612,100727.85
0.9331,-0.0786,-0.2559,-94.207,-65.915,37.134,0.9707,100727.49
1.0415,-0.1846,0.5225,8.963,2.805,24.695,1.1797,100727.48
1.0806,0.1567,1.3184,52.805,40.061,-20.061,1.7118,100727.97
1.6084,0.2192,1.1035,2.866,-19.329,-81.037,1.9628,100727.59
1.3091,0.0132,0.3823,-33.902,15.366,-65.854,1.3638,100728.39
0.7017,0.0376,0.0908,-45.671,67.012,-33.598,0.7085,100728.27
0.4727,-0.0195,-0.3906,-72.073,25.915,-6.098,0.6135,100727.19
0.418,0.1143,-0.2617,-27.073,-2.5,14.512,0.5062,100727.61
0.7593,0.3281,-0.187,-7.073,-71.22,24.695,0.848,100727.66
1.334,-0.0479,-0.022,57.439,-70.305,35.061,1.335,100727.21
1.3008,0.416,0.9468,156.707,54.939,43.902,1.6618,100727.26
1.3071,0.1387,0.5474,83.171,24.146,8.476,1.4239,100726.88
1.5962,-0.0278,0.1519,69.024,-41.402,-7.622,1.6036,100726.75
0.9712,0.0322,0.0894,67.805,30.671,26.22,0.9758,100727.72
0.2979,-0.1968,-0.0015,15.427,31.402,41.402,0.357,100727.59
0.3027,-0.062,0.1592,-45.61,-27.378,21.829,0.3476,100726.66
0.6084,0.0547,-0.1035,-127.317,-74.39,1.646,0.6196,100726.79
1.0513,-0.3843,-0.5435,-109.451,-81.463,-3.902,1.2443,100726.66
1.3853,-0.2222,0.7271,41.646,0.061,-4.146,1.5802,100725.45
1.2393,0.1191,1.1299,39.329,62.134,-17.805,1.6812,100726.12
1.5054,0.0962,0.5698,-4.146,1.646,-55.793,1.6125,100726.38
1.2153,-0.0244,0.1187,5.0,37.622,-39.878,1.2214,100726.72
0.8569,0.04,0.0972,12.622,65.122,-6.646,0.8634,100726.7
0.6919,-0.0044,-0.1743,-23.293,13.598,32.5,0.7135,100727.18
0.5425,0.2012,0.0,-13.598,-19.207,61.707,0.5786,100726.66
0.7021,0.2168,-0.1191,-19.573,-46.89,61.829,0.7445,100726.75
1.0811,-0.1738,0.0156,63.171,-22.134,48.78,1.0951,100726.44
1.375,0.2446,1.0,167.866,8.354,24.268,1.7177,100726.55
1.7188,0.209,1.0469,99.512,-46.646,-1.951,2.0233,100727.37
1.3691,-0.0903,0.2905,8.415,-34.085,1.646,1.4025,100728.08
0.6631,-0.252,-0.1753,-33.963,0.915,15.183,0.7307,100727.63
0.2095,-0.2905,-0.293,-66.402,-12.073,13.78,0.4627,100728.02
0.1924,-0.1797,-0.3525,-100.183,-48.841,-2.683,0.44,100726.84
0.5718,-0.1089,-0.1792,-119.756,-87.927,-6.951,0.609,100726.82
0.9546,-0.3198,-0.2583,-109.878,-70.366,6.646,1.0394,100726.3
1.0493,-0.3525,0.626,1.585,46.829,-13.659,1.2717,100725.95
1.2593,0.1182,1.2271,21.098,83.049,-68.415,1.7622,100726.52
1.5684,0.1372,0.6768,-40.488,30.671,-110.61,1.7136,100727.42
1.3345,-0.0957,0.0928,-46.951,45.793,-89.817,1.3411,100726.51
1.0181,0.063,-0.0298,-39.878,42.012,-45.549,1.0204,100726.46
0.7407,-0.0723,-0.4702,-78.902,-22.195,11.402,0.8803,100726.86
0.5103,0.0229,-0.4136,-56.098,-41.463,50.854,0.6572,100727.2
0.6914,-0.0122,-0.3159,-11.28,-49.878,46.098,0.7603,100727.57
1.0757,0.1646,0.8403,112.805,1.341,-6.768,1.3749,100727.1
1.6479,0.8018,1.7832,79.024,-9.329,-56.829,2.557,100726.76
1.689,0.1997,0.6426,-106.829,-56.28,-38.354,1.8181,100727.0
1.1455,-0.1499,0.1523,-142.439,-12.195,-7.378,1.1653,100726.31
0.4141,-0.2881,-0.0112,-184.024,14.512,20.183,0.5045,100725.32
-0.0142,-0.3877,-0.23,-225.305,-10.976,25.549,0.451,100725.19
0.2075,-0.1792,0.2466,-212.927,-65.061,-7.805,0.3688,100724.24
0.918,-0.1836,0.4336,-258.902,-127.988,-17.866,1.0317,100724.51
1.4971,-0.5752,0.085,-243.72,-117.134,-1.585,1.606,100725.41
1.458,-0.4053,0.4639,-152.744,-16.037,-15.61,1.5828,100725.25
0.9863,-0.1411,0.3135,-105.183,34.207,-41.402,1.0445,100725.38
1.313,0.2266,0.9922,-43.232,44.024,-112.622,1.6612,100726.33
1.6357,0.4219,0.9341,-127.805,26.402,-126.951,1.9303,100726.79
1.3184,0.1265,-0.1709,-244.146,-12.256,-73.902,1.3354,100726.91
0.8872,0.0864,-0.5298,-231.646,-25.244,-8.841,1.037,100726.77
0.2534,-0.0469,-0.5151,-139.573,-30.488,46.951,0.576,100727.0
0.5684,-0.0151,0.1274,-65.0,-25.793,14.39,0.5827,100727.69
0.918,0.1226,0.5293,-47.805,-24.329,-23.232,1.0667,100727.44
1.4238,0.1636,0.4072,-69.39,-50.854,-50.732,1.4899,100727.38
1.9761,-0.1011,0.2393,-58.049,-27.195,-57.744,1.9931,100727.19
1.896,-0.1157,0.3584,-2.683,74.024,-47.195,1.933,100727.15
1.3945,-0.0474,0.3232,-4.146,87.195,-36.098,1.4323,100727.37
1.2388,-0.2739,-0.0215,-69.39,-6.402,-19.451,1.2689,100727.55
0.6763,-0.4297,-0.1978,-107.988,-15.244,11.585,0.8253,100727.45
0.2905,-0.1421,0.0991,-131.463,-39.634,20.244,0.3383,100726.62
0.2759,-0.1006,0.249,-203.354,-88.415,17.073,0.385,100727.32
0.4053,0.0703,0.0498,-253.476,-120.732,23.415,0.4143,100727.38
0.8223,0.2046,0.021,-220.0,-118.232,15.793,0.8476,100727.28
1.5337,0.4033,0.7344,-139.146,-48.659,-34.695,1.7476,100727.55
2.0571,0.3037,0.7222,-120.0,9.634,-64.756,2.2013,100728.15
2.0273,0.188,0.5146,-85.427,59.39,-51.89,2.1001,100728.18
1.0542,0.0479,-0.0845,-80.488,123.78,-5.793,1.0587,100728.34
0.3828,-0.1665,-0.5317,-75.244,88.232,19.634,0.676,100728.36
0.2329,0.0566,-0.1602,-27.073,45.854,14.451,0.2883,100728.1
0.1646,0.3335,0.1572,-38.963,-3.598,-8.232,0.4038,100727.28
0.8853,0.2661,-0.0977,-81.89,-123.171,-34.268,0.9295,100727.44
1.8037,0.0718,0.1533,0.61,-97.805,-27.622,1.8116,100727.16
1.6235,0.2798,0.5669,104.512,43.598,22.439,1.7423,100727.2
1.3535,0.3086,0.6064,105.488,59.451,20.061,1.5149,100727.72
0.3862,-0.3457,-0.0376,-70.305,11.768,25.488,0.5197,100726.16
0.4375,-0.2983,-0.2759,-108.841,-55.427,37.439,0.5971,100726.32
0.7139,-0.1611,0.1689,-90.061,-55.427,51.585,0.7511,100727.3
0.7866,0.0469,0.1504,-77.561,-18.598,62.134,0.8022,100727.17
1.0552,0.1431,0.8052,-26.463,5.183,-10.0,1.335,100727.09
1.5137,0.3149,0.9785,-27.744,-9.573,-87.439,1.8297,100727.72
1.9229,0.2207,0.916,-26.341,-30.793,-111.341,2.1413,100728.22
1.2095,-0.0034,0.4116,-44.39,53.049,-61.585,1.2776,100727.7
0.3608,-0.0752,-0.189,-69.634,79.207,-18.476,0.4142,100726.73
0.3574,-0.1338,-0.4214,-64.39,-7.866,8.963,0.5685,100726.11
0.5571,0.0405,-0.105,-13.11,-41.585,28.171,0.5684,100726.11
0.7178,0.0811,-0.1729,2.805,-55.305,51.585,0.7427,100725.63
1.2178,0.1919,0.1479,90.366,-44.268,60.427,1.2416,100726.64
1.4771,0.6167,1.1953,156.402,42.195,33.902,1.9977,100727.95
1.4087,0.1528,0.6987,64.573,13.659,3.171,1.5799,100727.73
1.5229,-0.0674,0.3096,46.951,-59.878,-8.78,1.5556,100728.08
0.8979,-0.3032,0.0347,34.939,3.354,18.598,0.9484,100728.66
0.1362,-0.4043,-0.0928,8.232,42.378,32.866,0.4366,100727.89
0.1699,-0.2202,-0.1982,-46.768,-31.829,20.122,0.3416,100726.72
0.6011,-0.2202,-0.1333,-80.305,-82.195,14.939,0.6539,100726.05
0.9834,-0.104,-0.1392,-79.329,-66.768,40.122,0.9986,100725.6
1.23,-0.0352,0.542,-10.732,-4.512,22.744,1.3446,100726.1
1.5015,0.145,1.1577,5.122,12.256,-30.244,1.9015,100726.1
1.3604,-0.0464,0.1289,-18.476,67.378,-45.0,1.3672,100727.01
0.6206,0.124,0.1152,1.585,92.683,-22.317,0.6433,100726.38
0.5093,-0.0615,-0.4561,-61.402,7.988,-1.646,0.6864,100726.02
0.478,-0.1348,-0.4365,-28.598,-14.146,14.756,0.6612,100725.64
0.6401,0.2407,0.0278,8.598,-40.305,26.402,0.6845,100726.23
0.877,0.0386,-0.1406,-0.061,-66.707,46.159,0.889,100726.54
1.0566,0.1973,0.6812,96.463,20.793,30.488,1.2725,100726.64
1.208,0.2959,0.9912,92.317,47.866,-15.122,1.5904,100726.83
1.8286,0.147,0.6631,56.28,-38.293,-57.5,1.9507,100727.35
1.709,-0.0601,0.2148,38.354,-8.72,-20.671,1.7235,100728.55
0.6875,-0.3018,-0.1714,29.573,87.866,40.549,0.7701,100728.24
0.1929,-0.2334,-0.1011,4.39,44.451,34.146,0.3192,100727.87
0.4482,-0.1812,-0.1372,-70.0,-56.585,0.976,0.5026,100727.56
0.6289,-0.229,-0.231,-114.817,-90.732,11.22,0.708,100726.51
0.9077,-0.1455,-0.3691,-94.024,-92.561,29.268,0.9906,100726.16
1.3521,0.0107,0.6836,26.89,-26.89,2.256,1.5151,100726.03
1.6147,0.4224,1.4067,49.024,40.122,-41.098,2.1828,100727.07
1.7319,0.2358,0.8994,-15.122,27.988,-71.524,1.9657,100726.83
1.103,-0.0488,0.1016,-34.756,49.939,-50.549,1.1088,100726.66
0.4917,-0.0859,-0.2295,-28.354,53.598,-22.012,0.5494,100726.01
0.3779,-0.1523,-0.4019,-22.073,10.732,4.512,0.5723,100726.48
0.3804,0.1362,-0.0332,24.207,2.866,19.878,0.4054,100726.12
0.6987,0.2471,-0.1782,-6.768,-67.683,24.512,0.7623,100726.11
1.5132,-0.1294,-0.5166,37.439,-118.598,41.829,1.6042,100725.62
1.5669,0.5737,0.7983,209.451,62.378,58.415,1.8498,100725.56
1.2104,0.437,0.855,151.22,97.195,36.402,1.545,100724.58
1.5601,0.1499,0.3652,100.976,-23.171,-7.317,1.6092,100724.68
1.2344,0.0693,-0.0015,82.195,-16.89,5.793,1.2363,100724.02
0.6143,-0.2749,-0.4365,67.5,1.28,35.061,0.8021,100723.92
0.3662,-0.1211,-0.1152,87.561,-10.305,49.512,0.4026,100723.34
0.2017,-0.1128,0.0464,38.902,-30.366,64.024,0.2357,100723.52
0.3892,-0.2129,-0.1436,-8.72,-62.683,61.585,0.4662,100723.41
0.8374,-0.0439,-0.1729,39.512,-42.927,39.817,0.8562,100723.8
1.5586,0.5283,1.3115,148.537,-3.293,-38.537,2.1044,100723.27
1.9624,0.4448,1.2988,60.427,-55.122,-71.524,2.395,100723.32
1.5161,0.062,0.2578,-15.122,-30.671,-54.634,1.5391,100724.23
0.9282,0.063,-0.0098,14.817,55.549,-50.0,0.9304,100723.91
0.5957,-0.0181,-0.1411,17.683,66.037,-36.28,0.6125,100723.58
0.5244,-0.0771,-0.3149,7.927,40.976,-4.085,0.6166,100724.4
0.834,0.2129,-0.3813,86.22,-19.878,89.817,0.9414,100724.66
1.3345,0.7505,-0.4194,198.354,-69.512,132.805,1.5874,100724.23
1.7158,1.1138,0.3735,333.476,-8.11,116.646,2.0794,100724.3
1.4614,0.9819,0.9043,338.902,76.22,89.573,1.9793,100724.23
1.1411,0.5405,0.6895,245.915,36.89,40.732,1.4386,100724.64
1.001,0.1548,0.4756,146.402,-6.951,-19.085,1.119,100724.65
0.6074,-0.4116,-0.1362,43.171,-27.805,-9.756,0.7463,100724.73
0.2979,-0.5742,-0.6455,32.988,-28.354,31.28,0.9139,100723.62
0.4209,-0.2017,-0.3228,122.317,-15.305,40.732,0.5674,100723.77
0.8428,0.3442,0.0586,163.415,-21.524,37.988,0.9123,100723.77
1.4438,0.3794,0.1201,189.939,-50.854,4.268,1.4977,100723.74
2.0962,0.8369,0.7402,284.329,6.585,-53.72,2.3754,100724.11
1.4204,0.7847,0.915,250.0,126.402,-54.268,1.8629,100724.49
0.5977,0.2949,0.4844,126.037,105.305,-39.878,0.8239,100724.03
0.6704,0.0742,0.1553,33.476,-17.134,-37.683,0.6921,100723.95
0.6802,-0.2466,-0.311,-23.841,-35.976,-15.0,0.7875,100724.51
0.6719,-0.2202,-0.3608,4.085,-15.427,30.061,0.7938,100725.05
0.7373,0.1699,-0.2876,46.951,-10.061,64.329,0.8094,100725.22
0.9595,0.2686,-0.4575,131.707,-39.207,64.939,1.0964,100724.88
1.6797,0.8218,0.2964,263.354,-26.402,7.927,1.8933,100724.75
2.1274,0.8926,0.397,262.805,-3.78,-11.402,2.341,100724.39
1.7178,0.5449,0.3613,223.537,58.659,0.366,1.838,100724.16
1.0171,-0.0469,0.2061,125.488,98.11,30.671,1.0388,100723.93
0.4902,-0.4141,0.2236,66.829,64.024,42.988,0.6796,100723.9
0.3491,-0.1943,0.2407,-0.305,-3.293,40.915,0.4665,100724.1
0.4028,-0.2104,-0.3442,-107.134,-73.049,64.207,0.5701,100724.01
0.6904,-0.083,-0.5312,-104.085,-76.646,70.793,0.8751,100724.41
0.9336,0.1567,-0.2148,-55.793,-22.988,43.537,0.9707,100724.11
1.1519,-0.042,-0.0386,-25.244,-19.878,15.488,1.1533,100724.01
1.5034,0.2817,0.4609,60.427,8.598,-35.366,1.5975,100724.2
1.687,0.645,0.9844,88.049,54.939,-90.976,2.057,100724.71
1.0137,0.2993,0.4243,6.707,57.439,-82.561,1.1389,100725.67
0.7266,0.1597,0.1201,-38.841,18.476,-70.122,0.7535,100725.3
0.6416,0.0269,-0.2827,-80.549,5.915,-33.72,0.7016,100725.88
0.3218,-0.1729,-0.7363,-49.939,38.171,12.012,0.8219,100725.68
0.519,0.0376,-0.5591,47.5,35.0,24.756,0.7638,100725.65
1.2446,0.0962,-0.0659,127.378,-1.037,27.683,1.2501,100726.12
1.6763,0.4644,0.7026,212.622,14.39,21.646,1.876,100725.23
1.9414,0.8027,1.0522,183.902,6.707,0.427,2.3496,100724.83
1.6685,0.3447,0.4985,73.476,-26.707,10.183,1.7751,100725.39
1.0059,-0.1196,-0.0654,33.354,-13.049,37.256,1.0151,100725.19
0.4297,-0.2861,-0.2261,49.817,22.317,47.927,0.5636,100725.77
0.2144,-0.2129,0.0342,40.122,6.951,51.159,0.304,100725.37
0.3291,-0.311,-0.0977,-32.866,-26.098,60.671,0.4632,100725.16
0.6099,-0.2222,-0.1562,-60.671,-17.134,68.963,0.6676,100724.62
0.9819,-0.0225,0.0908,-35.793,-8.171,60.976,0.9864,100724.73
1.3521,0.0889,0.853,11.341,-4.817,15.915,1.6011,100724.68
1.5566,0.5366,1.0952,6.22,6.28,-52.866,1.9775,100725.73
1.584,0.3657,0.7012,-35.0,-30.671,-95.793,1.7704,100725.25
0.9819,0.1641,0.3408,-43.415,-1.037,-84.695,1.0523,100724.59
0.6475,0.2466,0.0942,-72.012,14.329,-61.463,0.6992,100724.66
0.4541,-0.1611,-0.6533,-129.878,-16.646,-15.0,0.8118,100724.49
0.4224,-0.1719,-0.6206,-54.39,-19.878,6.341,0.7701,100725.08
0.6235,0.0864,-0.3779,15.183,-7.012,21.768,0.7342,100725.51
1.0278,0.1582,-0.2583,84.451,8.902,31.768,1.0715,100724.88
1.4565,0.5747,0.6689,201.28,46.707,6.768,1.7027,100724.64
1.7637,0.7651,1.1748,181.037,58.963,-23.963,2.253,100724.57
1.5225,0.2544,0.6157,70.122,17.256,1.646,1.6618,100725.62
1.0513,-0.1182,0.3374,11.524,28.902,11.89,1.1104,100725.3
0.5962,-0.2261,-0.0039,-58.963,7.378,25.061,0.6376,100725.18
0.3374,-0.4038,-0.6489,-131.89,-60.549,45.61,0.8355,100724.84
0.48,-0.397,-0.3906,-92.5,-61.341,42.866,0.7352,100723.62
0.6528,-0.0107,0.1963,-55.183,-26.402,51.524,0.6818,100723.02
0.8765,0.2422,0.8647,-34.573,-27.5,18.293,1.2548,100722.7
1.5049,0.3438,1.0962,-69.573,-57.012,-61.768,1.8933,100723.8
2.0107,0.2632,0.4907,-102.439,-53.598,-89.756,2.0864,100723.88
1.4072,0.0981,0.1094,-60.915,50.0,-50.488,1.4149,100724.8
0.4517,0.2036,0.1099,-41.402,126.646,-32.195,0.5075,100724.4
0.2402,0.0972,-0.3369,-94.573,32.622,-18.537,0.425,100724.45
0.4795,0.1353,-0.5034,-77.988,-40.427,-7.744,0.7083,100724.85
0.8247,0.2842,-0.522,-20.732,-59.329,7.378,1.0165,100725.02
1.3735,0.2129,-0.2974,85.793,-46.585,27.622,1.4214,100724.92
1.7383,0.7231,0.9556,221.585,47.317,19.939,2.1113,100724.95
1.6606,0.7422,0.98,169.085,68.293,16.341,2.0661,100725.17
1.459,0.4214,0.6021,96.28,5.0,10.488,1.6336,100724.62
1.021,-0.0669,0.1704,27.012,-24.634,30.61,1.0373,100724.82
0.3789,-0.3501,-0.1606,-20.854,15.305,58.659,0.5403,100723.87
0.0776,-0.3159,-0.395,-57.134,20.976,67.927,0.5117,100724.23
0.2446,-0.3584,-0.1753,-69.39,-9.268,56.646,0.468,100723.65
0.5718,-0.0762,0.2207,-92.5,-53.841,44.024,0.6176,100722.95
0.9448,-0.1729,0.3398,-89.207,-58.11,14.756,1.0189,100723.07
1.3159,-0.0176,1.0225,-24.695,-13.963,-32.622,1.6665,100723.72
1.7251,0.3315,1.0049,-22.683,8.841,-81.89,2.0238,100725.09
1.7056,0.2163,0.3906,-39.817,18.415,-79.451,1.763,100724.62
1.188,0.0098,-0.0356,-42.256,78.72,-41.646,1.1886,100723.95
0.7354,-0.0435,-0.4072,-63.049,55.976,6.951,0.8417,100723.8
0.457,-0.0508,-0.4575,-55.244,-1.22,42.683,0.6487,100723.91
0.4316,0.2148,-0.0659,-22.195,-26.524,50.183,0.4866,100723.16
0.7368,0.1445,-0.3301,-20.549,-57.256,43.049,0.8202,100723.37
1.688,0.6191,1.5156,187.256,41.89,-18.902,2.3515,100723.87
1.9546,0.3081,1.0308,73.78,5.671,-20.366,2.2311,100723.96
1.3022,-0.1201,0.2607,5.793,37.805,11.524,1.3335,100724.28
0.5117,-0.4131,-0.0693,-41.098,28.232,30.549,0.6613,100723.91
0.0991,-0.5347,-0.3931,-110.976,-39.634,24.634,0.671,100723.76
0.2153,-0.499,-0.4678,-143.415,-84.878,2.439,0.7171,100723.05
0.5527,-0.333,0.0669,-141.037,-93.537,-6.341,0.6488,100722.52
0.7725,-0.3101,0.0176,-174.085,-92.866,-1.098,0.8326,100722.22
1.1899,-0.5166,0.5962,-88.049,-45.0,-33.659,1.4277,100721.74
1.5698,-0.1089,1.3706,-37.256,7.5,-71.463,2.0868,100721.13
1.6729,-0.02,0.9863,-86.951,18.659,-93.11,1.9421,100721.62
1.1724,-0.1479,0.3179,-117.378,33.78,-89.573,1.2237,100722.37
0.687,-0.1216,0.021,-136.585,20.793,-64.329,0.698,100722.97
0.4604,0.0513,-0.0386,-161.768,-1.22,-33.11,0.4649,100723.0
0.2534,0.1255,-0.1597,-182.012,-6.89,-1.829,0.3247,100722.16
0.2686,0.2173,-0.0483,-169.756,-19.634,7.683,0.3488,100722.77
0.7563,0.0674,-0.0347,-151.037,-54.451,-18.049,0.7601,100722.02
1.6475,-0.2036,0.438,-38.72,-35.671,-50.305,1.7168,100722.16
2.1782,0.4326,1.6138,49.756,50.61,-51.646,2.7452,100722.88
1.3662,0.146,0.9858,-85.427,90.244,-16.402,1.6911,100723.54
0.6479,-0.3438,0.2241,-182.988,50.427,-9.512,0.767,100724.53
0.3521,-0.3154,0.1196,-209.756,20.671,-22.988,0.4876,100724.9
0.4014,-0.0684,0.2266,-246.524,-16.463,-48.598,0.4659,100724.05
0.7534,0.0347,0.0894,-291.768,-74.573,-60.427,0.7595,100724.17
1.1787,-0.0557,0.2866,-238.232,-71.22,-76.89,1.2143,100723.66
1.5913,-0.082,0.7705,-165.549,-27.683,-118.72,1.7699,100723.78
1.9009,0.0859,0.6533,-123.232,-30.976,-137.439,2.0119,100724.31
1.6846,0.1294,0.5005,-85.854,-1.28,-107.5,1.7621,100724.95
1.0229,0.0186,0.1265,-93.902,59.512,-56.585,1.0309,100724.98
0.5659,0.0015,-0.1274,-95.244,44.024,-24.634,0.5801,100724.85
0.4478,-0.0361,-0.0767,-87.927,-2.317,-12.195,0.4557,100724.54
0.4888,-0.0596,-0.1685,-82.378,-30.793,7.317,0.5204,100725.02
0.748,0.0044,-0.0293,-41.402,-21.463,9.024,0.7486,100723.87
1.2153,0.123,0.5649,-8.232,-40.732,-14.268,1.3459,100724.62
1.9097,0.1724,0.6094,-31.585,-103.537,-21.646,2.0119,100724.55
2.0601,-0.0127,0.3276,-22.561,-53.293,-0.61,2.086,100724.98
1.4814,0.1177,0.5684,20.793,41.646,23.049,1.5911,100724.82
0.8105,-0.1294,0.2666,-37.378,27.805,37.805,0.863,100724.45
0.2793,-0.4478,-0.2539,-90.0,-10.366,56.951,0.5856,100724.06
0.1514,-0.2383,-0.1504,-76.768,-14.268,61.707,0.3199,100723.24
0.4375,-0.0269,0.3213,-84.634,-9.39,46.646,0.5435,100723.64
0.585,0.0713,0.2461,-133.537,-31.585,38.232,0.6386,100723.33
0.9346,-0.1338,0.3027,-121.402,-57.5,-0.427,0.9914,100723.91
1.2554,0.0137,0.6924,-55.183,-14.207,-57.988,1.4337,100723.89
1.5586,0.2754,1.0513,-2.5,18.78,-114.268,1.9001,100724.36
1.1592,0.2349,0.9155,-22.012,67.5,-118.354,1.4957,100724.12
0.9336,0.2358,0.5918,-73.476,56.098,-92.561,1.1302,100724.38
0.8276,0.2334,0.0532,-137.439,2.073,-50.915,0.8616,100724.59
0.5117,-0.0205,-0.4355,-148.049,-18.232,-17.195,0.6723,100723.91
0.5161,0.1113,-0.2817,-73.354,-58.476,5.915,0.5985,100724.51
1.1001,0.1606,-0.2578,-0.854,-104.512,18.171,1.1413,100724.56
1.4346,0.2471,0.4976,132.927,-3.902,29.329,1.5384,100724.84
1.21,0.5483,0.9502,159.878,80.0,19.756,1.6333,100724.92
1.4019,0.2744,0.7012,88.537,-14.939,-9.695,1.5913,100724.25
1.4468,0.1089,0.4292,27.012,-40.549,3.598,1.513,100724.71
0.7202,-0.2275,-0.0859,-35.976,28.72,40.122,0.7602,100724.23
0.23,-0.4014,-0.4316,-66.829,3.78,59.39,0.6327,100724.23
0.2515,-0.355,-0.291,-53.902,-56.707,50.61,0.5234,100724.22
0.5376,0.0044,0.127,-36.646,-84.634,35.61,0.5524,100724.2
1.1689,0.1577,0.2905,-28.232,-110.244,16.22,1.2148,100724.53
1.6899,0.0977,0.8081,20.183,-35.793,-9.085,1.8758,100724.66
1.5254,0.3604,0.9517,43.232,89.207,-26.098,1.8337,100724.76
1.2744,0.1431,0.8184,25.915,81.22,-44.939,1.5213,100724.7
0.834,-0.0249,0.3901,-18.72,33.11,-54.634,0.9211,100724.54
0.6396,-0.1641,-0.1372,-64.817,-18.293,-39.024,0.6745,100724.52
0.5425,-0.2251,-0.3984,-40.366,-8.537,4.756,0.7097,100724.16
0.3589,0.0991,-0.0229,30.244,44.695,33.049,0.373,100724.23
0.5776,0.2852,0.0078,16.28,-2.622,31.524,0.6442,100724.78
1.3691,-0.1074,-0.1924,35.183,-80.061,21.341,1.3868,100724.56
1.7949,0.3052,0.6401,170.305,12.256,6.89,1.9299,100724.76
1.7124,0.4209,0.8838,157.561,49.085,20.427,1.9725,100725.12
1.0684,-0.1206,0.3774,79.634,36.768,40.0,1.1395,100724.45
0.6382,-0.1201,0.478,27.988,19.756,25.915,0.8064,100725.15
0.3667,-0.2397,0.0015,-104.085,-24.207,12.561,0.4381,100725.2
0.4087,-0.3892,-0.5181,-172.195,-80.183,9.268,0.7661,100724.87
0.9321,-0.228,-0.5078,-142.744,-104.878,10.0,1.0857,100724.85
1.4043,-0.251,-0.0068,-25.061,-56.829,30.488,1.4266,100723.88
1.2725,0.1582,1.0933,100.244,83.841,19.756,1.6851,100724.96
1.1733,0.5547,1.5796,79.817,108.72,-49.878,2.0444,100725.52
1.0762,0.2061,0.8823,-34.451,7.012,-79.512,1.4068,100725.45
0.7104,-0.0371,0.1958,-99.756,-21.341,-72.317,0.7379,100725.41
0.6006,-0.0425,-0.3276,-133.78,-60.366,-44.207,0.6855,100725.52
0.5664,-0.1475,-0.5435,-115.244,-45.732,-6.951,0.7987,100724.64
0.4595,0.064,-0.2344,-57.561,1.951,14.939,0.5197,100724.68
0.7061,-0.0073,-0.4927,-51.829,-27.5,22.5,0.861,100724.94
1.2427,-0.1318,-0.2515,65.244,-23.476,1.646,1.2747,100724.63
1.7773,0.6338,0.8022,208.171,-19.817,-9.268,2.0504,100725.01
1.5234,0.5884,0.7407,166.585,3.963,-5.61,1.7932,100725.45
1.1528,0.2021,0.4595,107.744,37.439,-14.207,1.2574,100724.77
0.6006,-0.3384,-0.2109,-92.073,-51.707,1.159,0.7209,100724.66
0.5215,-0.4746,-0.4727,-124.39,-68.902,19.695,0.8489,100724.18
0.585,-0.3403,-0.3848,-85.732,-35.427,48.232,0.7785,100723.48
0.8203,0.1309,0.0942,17.5,-10.0,46.89,0.836,100723.7
1.438,0.3511,0.9517,60.915,10.305,-11.402,1.7598,100724.43
1.7495,0.2812,0.8398,39.695,43.659,-44.695,1.9609,100725.12
1.5845,0.2964,0.7036,34.573,51.341,-56.341,1.7588,100724.75
0.5913,-0.2715,-0.6133,-42.927,9.634,-4.817,0.8941,100723.6
0.4043,0.0181,-0.3027,29.39,40.366,32.439,0.5054,100723.35
0.3931,0.3667,0.2886,50.732,14.756,54.939,0.6101,100723.63
0.957,0.2822,-0.209,-3.659,-87.561,59.512,1.0194,100723.12
1.6543,0.0635,-0.3921,117.134,-68.415,61.098,1.7013,100723.38
1.8662,0.8398,0.7593,295.854,71.341,64.268,2.1828,100724.02
1.437,0.5391,0.8291,230.122,117.561,78.171,1.7444,100724.0
0.7764,0.1494,0.5137,155.549,98.415,67.622,0.9428,100724.12
0.4941,0.062,0.3037,75.549,13.537,42.012,0.5833,100724.45
0.4912,-0.2095,-0.2642,-5.183,-83.354,34.451,0.5958,100724.32
0.5029,-0.1919,-0.4038,-3.598,-96.524,47.5,0.6729,100723.74
0.52,0.0166,-0.042,21.159,-83.11,57.317,0.522,100723.79
0.8105,-0.0034,-0.0986,42.195,-73.659,54.756,0.8165,100722.38
1.2241,0.189,0.7329,170.244,-22.866,-7.317,1.4392,100721.95
1.7915,0.7305,1.6274,216.463,-24.329,-58.11,2.5282,100721.09
1.5112,0.126,0.6763,103.354,20.488,-48.841,1.6604,100720.95
1.0171,-0.1436,0.2944,106.159,106.768,-27.622,1.0685,100721.81
0.6895,0.124,0.6221,91.646,125.915,-14.634,0.9369,100722.58
0.415,-0.0078,0.1392,-35.305,43.72,-4.085,0.4378,100722.91
0.4116,-0.0693,-0.4775,-77.317,-55.671,15.854,0.6343,100721.69
0.5776,0.249,-0.4478,7.5,-75.854,40.061,0.7721,100721.89
0.9453,0.1885,-0.6758,95.732,-102.317,53.598,1.1772,100722.51
1.6362,0.2729,-0.272,273.049,-64.512,56.28,1.681,100722.72
1.9341,1.0054,1.0376,414.878,78.232,66.829,2.4141,100722.78
1.1123,-0.1929,-0.0142,199.817,84.939,89.512,1.129,100723.05
0.5635,-0.2749,0.2031,179.512,78.902,83.902,0.659,100723.15
0.2817,-0.2139,0.2778,79.939,12.073,68.476,0.4498,100722.13
0.4663,-0.2852,-0.4229,-24.329,-59.573,49.695,0.6911,100722.47
1.0522,-0.041,-0.2739,28.171,-56.585,18.72,1.0881,100722.56
1.4731,0.3506,0.605,68.415,-37.134,3.354,1.6307,100723.52
1.3613,0.1699,0.4175,11.585,-18.598,-5.427,1.434,100723.73
1.6333,0.2202,0.4639,47.866,-11.28,-38.232,1.7121,100724.01
1.6855,0.1416,0.6201,84.085,35.732,-45.793,1.8016,100724.58
0.9316,-0.0625,0.2544,76.646,68.963,-7.683,0.9678,100725.26
0.5337,-0.1504,-0.207,56.037,24.512,25.305,0.5919,100724.91
0.4395,-0.0083,-0.2524,83.293,8.232,53.659,0.5069,100724.89
0.3311,0.3672,-0.0151,128.659,7.134,55.488,0.4946,100724.88
1.1245,0.3975,0.354,141.037,-100.488,15.488,1.2441,100725.87
1.9219,0.4033,0.7402,175.732,-99.085,-2.195,2.0986,100725.47
1.7656,0.395,0.6377,189.512,10.366,2.317,1.9184,100725.81
1.2979,0.1201,0.4746,172.317,31.524,9.451,1.3871,100725.81
0.7305,-0.1099,0.3721,117.683,25.671,21.524,0.8271,100725.09
0.2207,-0.4146,0.1187,40.732,32.378,23.537,0.4844,100725.41
0.1426,-0.3599,0.0596,-14.756,10.671,12.988,0.3916,100725.52
0.3789,-0.3032,-0.0151,-74.878,-53.171,7.317,0.4855,100726.09
0.8486,-0.1665,-0.1885,-99.817,-119.512,12.866,0.8851,100726.39
1.373,0.124,0.0337,-38.11,-121.829,11.585,1.379,100725.02
1.6558,0.1792,0.5635,19.146,-45.793,4.207,1.7582,100724.83
1.5488,0.2056,0.522,45.549,38.293,-4.939,1.6473,100725.13
1.2925,0.2822,0.7305,86.646,72.988,-28.293,1.5112,100725.48
0.8384,0.2759,0.561,45.732,76.037,-50.61,1.0458,100725.24
0.7026,0.0278,-0.0117,-10.061,10.183,-51.463,0.7033,100724.92
0.8511,-0.0776,-0.1953,-15.488,-25.427,-29.878,0.8766,100724.54
0.6519,-0.0771,-0.332,-9.085,4.329,14.634,0.7356,100724.0
0.4678,0.0938,-0.2827,30.61,7.134,50.427,0.5546,100723.58
0.9155,0.2041,-0.0537,68.78,-30.61,49.573,0.9395,100723.74
1.4233,0.3882,0.5815,133.78,-6.402,26.402,1.5858,100723.87
1.6548,0.4546,0.7241,120.549,-6.707,4.817,1.8626,100724.4
1.6499,-0.0171,0.0674,67.744,-46.89,8.171,1.6514,100723.82
1.1924,-0.0044,0.0327,89.268,14.573,27.195,1.1928,100724.0
0.5552,-0.1733,0.0688,62.866,60.183,46.22,0.5857,100725.84
0.3125,-0.2651,0.3325,6.402,41.22,51.524,0.5278,100724.69
0.2578,0.0039,0.2539,-90.732,-1.646,54.329,0.3619,100724.28
0.4995,-0.1348,-0.2671,-165.915,-77.683,43.598,0.5822,100723.51
1.3013,-0.0757,-0.0117,-85.732,-117.561,27.622,1.3035,100724.74
1.5176,0.1255,0.667,-2.744,5.732,5.671,1.6624,100725.77
1.3022,0.2529,0.5898,9.39,71.037,-31.098,1.4518,100727.0
1.3345,0.1416,0.3721,1.159,23.841,-69.634,1.3926,100726.95
0.9658,-0.0469,-0.0654,-25.183,10.366,-71.159,0.9692,100726.66
0.8115,-0.1763,-0.3472,-26.768,-4.695,-42.378,0.9001,100726.07
0.7866,-0.0156,-0.0713,3.171,34.939,-0.793,0.79,100725.88
0.5381,0.2476,0.1997,-6.22,54.207,40.0,0.6251,100725.74
0.6987,0.1855,-0.0615,-48.171,-24.39,46.037,0.7256,100726.48
1.0869,-0.1992,0.0127,0.854,-20.488,11.646,1.1051,100726.08
1.4556,0.0884,0.7812,108.659,-10.793,-26.89,1.6543,100726.39
1.9004,0.2446,0.8608,88.476,-68.963,-35.366,2.1006,100726.37
1.3667,-0.0762,0.1406,23.354,-21.402,-10.976,1.376,100726.84
0.7139,-0.2578,-0.2373,12.927,24.207,23.11,0.7952,100726.11
0.3247,-0.1709,-0.1626,-13.476,43.72,44.573,0.4013,100724.59
0.2461,-0.1831,-0.3203,-74.878,25.488,50.671,0.4435,100724.54
0.8403,0.0254,0.0474,-111.159,-68.659,31.341,0.842,100724.24
1.4717,0.0361,0.4692,-49.573,-57.073,10.732,1.5451,100724.66
1.5063,0.125,0.5801,-11.585,47.378,-9.695,1.619,100725.44
1.4082,0.0327,0.4224,28.232,72.744,-44.085,1.4705,100724.92
1.3584,0.0762,0.4399,58.78,33.293,-58.72,1.4299,100725.99
0.8726,-0.0645,0.0474,19.634,25.488,-47.866,0.8762,100726.58
0.7114,-0.1943,-0.2441,-4.695,-6.159,-13.78,0.7769,100726.51
0.606,0.0273,0.0527,21.159,17.988,28.171,0.6089,100726.22
0.4785,0.4111,0.3687,1.402,15.793,43.78,0.7307,100726.0
0.9556,0.0713,-0.2632,-62.622,-75.793,30.366,0.9937,100725.68
1.3359,-0.2158,-0.041,46.402,-23.415,17.927,1.3539,100725.45
1.3267,0.1343,0.6436,154.512,55.366,11.585,1.4806,100724.73
1.5029,0.1001,0.7388,157.012,11.646,2.073,1.6777,100724.84
1.0952,0.1626,0.6455,131.89,30.183,3.293,1.2816,100724.9
0.6016,-0.0762,0.3018,46.585,17.195,3.354,0.6773,100725.05
0.5542,-0.2104,0.0293,-44.085,-24.207,5.122,0.5935,100725.7
0.5244,-0.1416,-0.2959,-115.244,-38.598,20.122,0.6186,100725.09
0.7583,-0.1597,-0.3188,-132.439,-74.939,32.439,0.838,100724.24
0.9551,-0.3452,-0.3062,-75.793,-41.037,35.0,1.0607,100724.7
1.0493,-0.1421,0.687,52.744,39.024,-0.793,1.2622,100724.23
1.4121,0.2104,1.1157,70.061,17.927,-54.573,1.812,100723.74
1.5952,0.187,0.5718,33.659,-12.927,-72.744,1.7049,100724.7
1.1777,-0.0767,0.02,21.402,44.878,-42.805,1.1804,100724.95
0.7515,-0.0581,-0.0596,23.232,54.512,-1.89,0.7561,100725.34
0.6128,-0.062,-0.0864,-4.817,1.159,29.756,0.622,100724.55
0.5225,0.0742,0.0459,-26.89,-29.329,52.866,0.5297,100724.55
0.792,-0.0205,-0.3184,-41.463,-48.293,50.244,0.8538,100723.59
1.2866,-0.0278,0.3013,71.22,-14.695,22.256,1.3217,100723.94
1.5327,0.373,1.106,119.939,-11.646,6.098,1.9265,100723.36
1.4385,0.0122,0.6689,49.451,-27.866,4.39,1.5865,100722.92
0.8906,-0.0825,0.4136,16.28,10.732,5.366,0.9854,100723.09
0.4263,-0.2529,0.2021,-55.366,5.976,-3.354,0.5353,100723.7
0.3467,-0.3828,0.0498,-130.0,-35.366,-19.695,0.5189,100723.67
0.437,-0.377,-0.1216,-190.061,-63.841,-15.244,0.5898,100724.15
0.5312,-0.3394,0.0933,-206.037,-67.805,-4.207,0.6372,100723.9
0.8359,-0.3286,0.0562,-198.659,-59.695,4.573,0.9,100724.07
1.1167,-0.3774,0.9932,-112.134,22.622,-50.244,1.5414,100723.48
1.3428,-0.0439,1.1226,-128.537,15.793,-92.256,1.7507,100723.75
1.5459,0.1519,0.7954,-152.988,-12.439,-128.171,1.7451,100723.84
1.3281,0.0098,0.2666,-174.817,-15.549,-120.122,1.3547,100724.38
0.834,-0.1064,-0.2554,-179.939,-0.366,-62.073,0.8787,100723.83
0.707,0.063,-0.1138,-143.598,12.439,-18.476,0.7189,100723.65
0.6587,0.2393,0.1304,-139.39,-4.146,2.195,0.7128,100723.89
0.8838,0.1143,0.0537,-129.268,-61.402,2.622,0.8928,100723.41
1.3262,0.2754,0.7661,-42.805,-27.927,-30.976,1.5561,100724.08
1.6616,0.4805,1.3296,-48.537,8.537,-57.073,2.1817,100724.68
1.2671,0.0586,0.6221,-153.841,12.561,-25.793,1.4128,100725.15
0.6499,-0.2002,0.3174,-191.098,42.134,-8.963,0.7505,100724.87
0.3452,-0.4111,0.1372,-229.451,46.646,-6.646,0.5541,100724.88
0.377,-0.1216,0.2788,-232.927,15.671,-18.415,0.4844,100724.66
0.7178,0.1787,0.2461,-244.024,-12.012,-46.951,0.7796,100724.51
1.0303,-0.0269,0.4683,-196.524,-2.866,-98.232,1.132,100724.88
1.3906,0.0718,0.7275,-124.451,-21.341,-134.024,1.5711,100725.03
1.2876,0.2222,0.7285,-57.073,-10.915,-137.683,1.496,100724.66
1.1606,0.2651,0.7754,-26.037,23.11,-110.915,1.4208,100726.49
0.9009,0.0752,0.373,-48.841,20.732,-59.878,0.978,100726.85
0.8521,0.1226,0.5312,-50.671,-4.756,-42.134,1.0116,100726.88
0.8306,0.1279,0.3188,-127.683,-61.524,-12.622,0.8988,100725.77
0.7134,-0.0762,-0.1152,-165.976,-76.829,21.951,0.7266,100725.67
0.688,0.0615,0.2759,-104.939,-12.744,25.366,0.7438,100725.84
0.6445,0.1548,0.6992,-83.049,0.305,9.085,0.9635,100725.23
0.9097,0.061,0.6455,-101.951,-64.939,-27.744,1.1171,100725.61
1.2583,0.0381,0.4424,-100.427,-75.0,-55.061,1.3343,100725.28
1.5415,0.1069,0.5952,-79.207,-26.037,-73.11,1.6559,100726.01
1.5044,0.1416,0.5205,-96.159,-7.988,-70.488,1.5982,100725.71
1.2378,0.1831,0.1885,-136.89,-36.098,-49.024,1.2654,100726.47
0.9141,0.0161,-0.25,-173.659,-41.768,-13.537,0.9478,100725.93
0.6699,-0.1641,-0.4214,-155.122,-19.634,30.793,0.8083,100726.14
0.4438,0.0356,1.0166,-48.415,-14.268,15.183,1.1098,100725.28
0.8931,0.0654,0.8706,-104.085,-61.463,-86.89,1.2489,100725.38
1.8252,0.0938,0.6987,-80.0,-84.146,-158.232,1.9566,100725.32
1.9575,0.2051,0.7417,-29.329,-8.537,-120.244,2.1033,100725.89
0.9146,0.1089,0.0957,-45.976,92.622,-37.378,0.926,100725.47
0.3188,-0.0039,-0.4692,-48.78,56.037,3.963,0.5673,100725.67
0.4878,-0.0488,-0.5156,-9.634,-22.561,11.22,0.7115,100725.52
0.7266,0.106,-0.2407,52.988,-47.561,41.951,0.7727,100725.09
0.9595,0.2109,-0.083,100.244,-48.659,76.341,0.9859,100724.61
1.1714,0.3545,0.71,174.207,11.402,76.098,1.4149,100724.16
1.0317,0.3203,1.1592,150.732,52.927,40.732,1.5845,100723.75
1.3867,0.1147,0.8857,80.122,-50.915,-20.122,1.6495,100724.11
1.6143,-0.019,0.3989,26.951,-99.329,-35.305,1.6629,100724.52
0.9966,-0.376,-0.1699,3.537,-20.183,6.707,1.0786,100723.84
0.2656,-0.4316,-0.1299,19.512,42.561,32.5,0.5232,100723.93
0.1362,-0.3457,-0.1221,-27.195,-8.72,27.988,0.3911,100724.52
0.4863,-0.231,-0.0107,-72.927,-67.256,24.451,0.5385,100724.45
0.8662,-0.0029,-0.0044,-90.854,-63.171,36.585,0.8662,100724.87
1.2822,0.0122,0.5986,-33.293,-12.378,19.512,1.4151,100725.57
1.7412,0.4795,1.1084,-36.829,70.549,-86.037,2.119,100725.5
1.5107,0.0767,0.1392,-87.805,37.195,-76.402,1.5191,100725.41
0.7441,-0.0425,-0.3135,-56.585,74.268,-38.049,0.8086,100725.72
0.3687,-0.0386,-0.2451,-40.183,56.524,-35.427,0.4444,100725.35
0.5596,0.2739,-0.1035,-36.585,-61.098,8.415,0.6316,100724.97
0.9531,0.2012,-0.1187,-2.378,-94.512,26.037,0.9813,100725.23
1.4004,0.2466,0.4448,104.512,-64.634,26.402,1.4899,100725.53
1.5415,0.4253,0.9951,140.305,17.256,-1.463,1.8834,100726.77
1.6465,0.082,0.5151,83.963,8.354,-12.317,1.7271,100726.61
1.3721,0.0405,0.2314,64.939,38.659,7.988,1.392,100727.05
0.7515,-0.2529,-0.0781,20.854,71.28,33.415,0.7967,100726.91
0.4688,-0.2954,-0.0454,-15.061,33.598,48.415,0.5559,100726.56
0.4785,-0.146,0.0796,-63.049,-11.951,60.122,0.5066,100725.91
0.4961,0.0752,0.2612,-103.537,-28.78,64.146,0.5657,100726.88
0.8369,0.1426,-0.0928,-127.256,-69.451,45.305,0.854,100726.16
1.4038,-0.1323,0.459,-42.805,-24.268,-9.146,1.4829,100726.12
1.564,0.3472,1.1758,29.024,62.378,-61.829,1.9872,100726.67
1.7212,0.1875,0.9141,-12.744,23.171,-94.817,1.9578,100726.71
1.1558,-0.0884,0.1201,-46.402,24.207,-64.939,1.1653,100726.25
0.5269,-0.0562,-0.3018,-44.695,47.439,-19.573,0.6097,100725.43
0.2446,-0.0962,-0.5332,-16.768,30.183,19.146,0.5945,100725.64
0.3794,0.1377,0.1431,56.037,-5.183,30.732,0.4282,100726.41
0.8018,0.2354,0.2046,29.817,-90.488,45.427,0.8603,100725.9
1.4053,-0.1304,-0.1167,60.0,-96.098,60.244,1.4161,100726.1
1.5786,0.2773,0.7056,196.341,20.0,61.829,1.7512,100725.88
1.603,0.3931,0.9531,172.988,17.378,41.402,1.9059,100725.24
1.4268,-0.063,0.2646,98.902,-9.756,42.744,1.4525,100726.12
0.5557,-0.1772,0.1113,86.463,72.805,56.341,0.5938,100726.52
-0.0195,-0.2993,0.082,12.073,41.768,35.366,0.311,100725.84
0.2114,-0.3535,-0.0942,-81.22,-53.598,-1.037,0.4226,100724.95
0.5308,-0.2476,-0.1001,-124.512,-74.695,-7.622,0.5941,100724.54
0.8335,-0.2622,-0.3936,-120.122,-69.634,2.439,0.9583,100724.09
1.5503,-0.144,0.5977,12.866,-18.841,-14.329,1.6677,100723.59
1.6016,0.3384,1.415,55.427,86.768,-33.902,2.1638,100723.31
1.4038,0.3535,0.9243,-3.11,64.268,-78.841,1.7176,100723.55
1.2988,0.0811,0.2988,-39.512,16.159,-91.585,1.3352,100724.07
0.8784,-0.0073,0.0015,-51.89,40.305,-61.646,0.8784,100723.98
0.5439,-0.0034,-0.2998,-70.549,11.707,-21.524,0.6211,100724.51
0.4697,0.1138,-0.2866,-53.841,-31.89,8.963,0.5619,100723.8
0.5854,0.1792,-0.4243,-24.024,-67.927,33.415,0.7449,100723.4
1.1152,0.0381,-0.3574,96.22,-84.939,46.463,1.1717,100724.41
1.4575,0.6958,1.0322,272.744,5.549,49.756,1.9168,100723.91
1.5288,0.7744,1.2544,217.5,30.549,36.951,2.1238,100724.12
1.4102,0.1772,0.4443,123.537,3.537,38.232,1.4891,100725.59
0.9209,0.0581,0.2886,100.976,55.732,46.037,0.9668,100725.0
0.4702,-0.3418,-0.3755,27.195,38.11,49.939,0.692,100724.2
0.4438,-0.3237,-0.4512,12.439,-27.988,57.134,0.7109,100723.95
0.4404,-0.1592,-0.2178,14.573,-57.622,72.927,0.5165,100722.69
0.6816,-0.0903,-0.2139,32.988,-50.915,66.524,0.7201,100722.46
1.0815,0.3262,0.5806,162.256,-4.878,30.427,1.2701,100722.64
1.5483,0.709,1.7129,201.646,21.951,-20.915,2.4154,100723.29
1.5815,0.3403,1.0508,91.768,-6.098,-17.5,1.9291,100724.0
1.0063,-0.0601,0.29,56.159,46.829,15.061,1.049,100724.39
0.3281,0.0562,0.2212,62.622,91.159,38.171,0.3997,100724.07
0.1694,0.1074,0.1445,15.244,37.683,36.28,0.2473,100723.97
0.7109,0.1558,-0.1611,-13.78,-65.427,42.866,0.7454,100722.97
1.4551,0.231,-0.5034,94.817,-83.598,68.293,1.5569,100724.02
1.7432,0.9688,0.8096,321.768,56.22,85.488,2.1523,100724.91
1.8774,1.0859,1.3213,291.829,65.671,89.451,2.5397,100724.37
1.3364,0.1836,0.1826,161.402,40.061,99.207,1.3613,100724.32
0.7432,-0.0181,0.0986,168.293,51.402,85.549,0.7499,100724.03
0.4209,-0.2881,0.0605,120.122,10.976,72.866,0.5136,100723.48
0.4761,-0.4707,-0.1313,72.073,-72.073,74.329,0.6822,100723.42
0.7134,-0.2158,-0.022,78.354,-74.878,70.366,0.7456,100723.27
0.8809,-0.0371,0.4541,110.671,-27.683,49.451,0.9917,100723.77
1.0371,0.0933,0.8433,99.207,-18.78,24.878,1.3399,100724.86
1.4351,0.3486,0.7427,66.585,-37.012,-22.134,1.653,100725.09
1.7427,0.5386,0.6631,83.293,-19.085,-47.622,1.9408,100724.88
1.1514,0.4834,0.4902,84.451,66.707,-52.622,1.3415,100724.74
0.7686,0.1152,0.0767,36.402,9.573,-41.707,0.7809,100724.73
0.8101,-0.0688,-0.3267,12.988,-56.098,-5.488,0.8762,100725.09
0.5786,0.0518,-0.4204,62.927,-8.537,33.72,0.7171,100724.63
0.6421,0.3613,0.0435,135.244,-4.756,37.195,0.7381,100724.71
1.3105,0.3174,0.3032,160.183,-82.866,30.061,1.3821,100724.73
1.8091,0.3794,0.5361,230.854,-52.256,27.561,1.9246,100724.38
1.6675,0.4946,0.5776,270.061,23.415,39.695,1.8327,100725.25
1.1616,0.3599,0.7637,242.866,41.89,42.5,1.436,100724.41
0.5708,-0.2036,0.4629,107.195,26.707,42.378,0.7626,100724.3
0.3418,-0.1963,0.1211,-18.841,-19.39,44.573,0.4123,100724.84
0.4976,-0.1895,-0.1401,-96.402,-60.305,44.329,0.5505,100724.72
1.0659,-0.0293,-0.46,-114.451,-125.0,59.817,1.1613,100724.48
1.4336,-0.0576,-0.3955,-22.5,-44.451,64.146,1.4883,100724.77
1.2603,0.271,0.5635,107.134,93.11,23.415,1.4068,100725.09
1.5981,0.4995,0.9482,98.598,33.902,-40.366,1.9243,100725.78
1.5962,0.2695,0.478,33.841,-27.683,-58.232,1.6879,100726.65
0.7256,-0.043,-0.0391,-2.195,27.805,-47.134,0.7279,100726.81
0.4404,-0.062,-0.1245,-12.317,33.841,-38.415,0.4619,100726.21
0.3936,-0.0581,-0.3257,-13.415,39.512,-7.805,0.5141,100725.03
0.8828,0.1167,0.144,2.988,-1.524,-3.11,0.9021,100725.38
1.3096,-0.1655,0.0684,72.134,-45.427,25.0,1.3218,100726.22
1.6782,0.5957,1.1768,210.061,9.878,-5.671,2.1345,100726.95
1.8867,0.5039,0.9077,126.402,-37.988,-16.341,2.1535,100727.54
1.3018,-0.0649,-0.0161,41.951,-44.329,23.598,1.3035,100726.99
0.604,-0.3638,-0.1157,32.256,21.037,44.39,0.7145,100727.06
0.2275,-0.3462,0.002,-10.244,27.561,52.805,0.4143,100727.02
0.0957,-0.3076,-0.1523,-77.866,-10.671,58.049,0.3564,100727.09
0.4604,-0.2139,-0.0815,-114.817,-50.488,44.268,0.5142,100728.0
1.0132,-0.1465,-0.3091,-113.598,-70.488,42.866,1.0694,100727.13
1.3389,0.0967,0.7417,-1.037,-0.854,9.451,1.5336,100726.34
1.3584,0.4487,1.1128,-14.268,39.329,-50.793,1.8124,100726.86
1.5605,0.1934,0.6748,-53.841,-19.939,-103.963,1.7112,100727.21
1.1602,0.1162,0.355,-58.537,10.732,-99.39,1.2188,100726.84
0.6167,-0.1387,-0.2393,-40.061,53.537,-35.793,0.6759,100726.23
0.5532,0.2036,0.2124,12.622,71.22,4.146,0.6266,100726.44
0.6929,0.2051,0.0693,-12.439,-1.037,30.244,0.7259,100725.99
1.2715,0.0015,-0.1851,26.22,-49.817,47.073,1.2849,100726.15
1.5684,0.3896,0.5757,150.61,32.744,43.232,1.7155,100727.46
1.7524,0.4302,0.7974,147.805,24.878,29.573,1.9728,100728.34
1.4863,0.1377,0.498,98.354,14.878,25.915,1.5736,100728.46
0.7754,-0.2158,0.0532,24.878,25.244,34.451,0.8066,100727.82
0.2632,-0.6533,-0.3853,-44.573,11.524,36.28,0.8028,100727.22
0.3203,-0.5449,-0.1035,-50.366,-2.683,32.683,0.6405,100726.28
0.5249,-0.0352,0.4888,-72.439,-21.707,28.598,0.7181,100726.04
0.8721,0.041,0.1211,-131.463,-72.683,24.512,0.8814,100726.12
1.2271,0.0742,0.6021,-53.476,-39.207,4.695,1.3688,100726.13
1.1367,0.4512,1.2373,-6.463,62.927,-52.378,1.7397,100726.66
1.3447,0.2759,0.9414,-30.061,10.427,-109.817,1.6645,100726.66
1.2915,0.001,0.437,-32.805,11.22,-104.451,1.3634,100727.27
0.9419,-0.0547,0.0674,-29.207,54.512,-55.305,0.9459,100727.51
0.6367,0.0132,-0.2349,-35.0,39.634,7.134,0.6788,100727.58
0.4111,0.1846,-0.1846,-19.939,12.378,45.671,0.487,100727.75
0.6895,0.0879,-0.3335,-7.134,-45.183,47.439,0.7709,100728.62
1.2515,0.0684,0.0698,109.268,-37.622,37.927,1.2553,100728.3
1.6631,0.7183,1.5103,213.232,0.671,17.561,2.3585,100728.41
1.8535,0.3857,1.0771,92.378,-44.512,10.671,2.1782,100728.65
1.2153,-0.1641,0.1641,20.427,-0.549,42.622,1.2373,100729.19
0.3633,-0.2842,-0.0977,2.988,32.317,64.024,0.4715,100728.54
0.0757,-0.4277,-0.4673,-44.451,-39.573,51.402,0.638,100727.05
0.3003,-0.3345,-0.4131,-31.463,-80.305,32.805,0.6105,100726.8
0.7822,0.0098,0.0669,-15.427,-96.28,28.232,0.7851,100725.76
1.2148,-0.1963,0.001,9.146,-78.841,33.354,1.2306,100726.08
1.4946,0.1621,1.3911,130.732,31.098,14.024,2.0483,100726.42
1.3511,0.457,1.5806,75.366,70.488,-22.195,2.129,100726.79
1.1592,0.1675,0.6348,-26.037,9.573,-53.537,1.3322,100726.55
0.7959,-0.0273,-0.1865,-58.049,10.061,-33.171,0.8179,100727.6
0.5288,-0.001,-0.6157,-34.451,23.354,7.805,0.8116,100727.17
0.436,0.0737,-0.6089,30.122,4.146,47.927,0.7525,100725.77
0.9043,0.4302,0.0298,105.488,-73.963,72.744,1.0018,100725.55
1.4229,0.3989,-0.3931,124.329,-107.012,113.476,1.5291,100725.73
1.4761,0.9297,0.8779,298.537,19.451,119.573,1.9529,100725.38
1.3647,1.0239,1.2637,220.244,20.061,94.939,2.1232,100724.77
1.1592,-0.1978,-0.1001,90.671,-52.561,61.402,1.1802,100725.28
0.8862,-0.1709,0.0762,153.415,-7.439,25.549,0.9058,100726.61
0.5713,-0.3281,-0.061,119.268,-19.268,26.159,0.6616,100725.79
0.438,-0.4209,-0.1338,105.732,-32.927,30.0,0.622,100725.51
0.9458,-0.0229,0.0591,98.598,-74.573,37.439,0.9479,100725.34
1.1538,-0.0327,-0.3154,140.366,-16.951,46.585,1.1966,100725.57
1.5366,0.6978,1.3638,281.646,54.512,2.195,2.1698,100726.93
1.7217,0.7036,1.1636,171.22,10.61,-15.366,2.1939,100726.97
1.2021,0.1699,0.2144,97.683,10.61,-18.354,1.2329,100726.8
0.6963,0.1182,-0.0005,117.866,42.866,-20.183,0.7062,100726.27
0.6274,-0.0308,-0.0244,113.049,31.098,-25.671,0.6287,100726.73
0.7012,-0.1533,-0.2002,107.927,-6.89,0.061,0.7451,100726.48
0.7065,0.0283,-0.062,132.073,-21.646,39.573,0.7098,100726.05
0.8726,0.2559,0.0796,140.061,-55.793,73.902,0.9128,100725.48
1.1641,0.2759,-0.1802,154.146,-84.939,88.598,1.2098,100726.01
1.4653,0.3491,0.0811,254.512,-13.415,71.89,1.5085,100725.58
1.3809,0.769,0.8706,330.122,75.549,40.305,1.8045,100726.45
1.2939,0.6143,1.1514,246.341,63.841,-13.72,1.8377,100726.88
1.104,-0.127,0.4331,71.585,23.415,-29.329,1.1927,100727.6
0.7593,-0.5859,0.2056,7.5,55.305,-19.695,0.9809,100727.62
0.6396,-0.3159,0.1523,-50.0,58.537,-10.549,0.7295,100727.88
0.7368,-0.4785,-0.5615,-138.841,-18.598,4.695,1.0427,100728.43
0.9209,-0.3003,-0.4932,-87.927,-42.866,21.341,1.0869,100729.11
1.1304,0.2334,0.4082,8.78,-35.732,19.085,1.2243,100728.3
1.4771,0.374,0.8936,7.378,-42.683,-20.427,1.7664,100728.27
1.8364,0.313,0.6646,-0.427,-15.488,-39.878,1.9779,100728.6
1.3125,0.2183,0.7891,59.451,105.61,-20.732,1.5469,100728.62
0.5913,0.2197,0.709,25.122,116.768,-13.293,0.949,100727.89
0.5991,-0.2178,-0.3555,-73.415,-1.402,0.183,0.7299,100727.59
0.5532,-0.186,-0.5454,-6.463,-13.841,43.78,0.7988,100727.37
0.4985,0.2588,-0.0835,83.537,-1.951,67.256,0.5679,100727.94
0.979,0.0845,-0.0586,97.866,-72.134,52.805,0.9844,100728.0
1.5181,0.3374,0.6382,186.89,-66.341,34.512,1.681,100727.54
1.875,0.5361,1.3125,193.171,-43.476,9.207,2.3507,100727.95
1.7349,0.061,0.6079,113.049,-57.866,12.317,1.8393,100727.41
0.374,-0.3965,0.1372,63.11,5.305,52.195,0.5621,100727.49
-0.0703,-0.3076,0.1909,3.841,4.329,51.159,0.3688,100727.63
0.1128,-0.1533,0.0239,-81.037,-43.354,33.537,0.1918,100726.99
0.6177,-0.1172,-0.0527,-124.451,-73.476,29.146,0.6309,100727.24
1.0044,0.0229,-0.0176,-96.402,-50.793,39.878,1.0048,100726.47
1.1865,0.0537,0.6011,-28.11,29.451,5.976,1.3312,100725.67
1.4185,0.1709,1.0327,2.805,63.963,-68.78,1.7629,100726.47
1.8237,0.1802,0.9546,-3.72,15.732,-122.866,2.0663,100726.59
1.3027,-0.0298,0.145,-39.329,28.293,-87.439,1.3111,100727.16
0.6455,-0.0669,-0.3369,-37.378,44.39,-30.671,0.7312,100726.38
0.5034,-0.0752,-0.3896,-11.646,15.061,7.561,0.641,100726.39
0.5093,0.126,-0.0425,31.89,6.463,42.866,0.5263,100726.39
0.6128,0.1787,0.0381,28.293,-28.476,56.585,0.6395,100726.98
1.1787,-0.0732,0.019,65.854,-49.39,47.012,1.1811,100727.55
1.5273,0.2578,0.981,173.841,16.402,32.622,1.8334,100728.2
1.7109,0.2705,1.1333,118.354,-5.549,9.024,2.07,100727.95
1.4902,-0.1265,0.3672,32.134,-39.268,10.61,1.54,100727.9
0.8472,-0.1587,0.0864,7.805,-9.146,31.402,0.8662,100728.06
0.2983,-0.2461,-0.1763,-47.378,-11.951,45.061,0.425,100727.46
0.1826,-0.2256,-0.4365,-96.159,-25.427,45.671,0.5242,100727.03
0.4927,-0.1626,-0.2515,-101.098,-48.841,33.415,0.5765,100726.3
0.939,-0.23,-0.0347,-75.61,-57.317,20.854,0.9673,100725.88
1.2222,-0.1694,0.7593,-9.756,-0.61,-11.098,1.4488,100726.41
1.4512,0.082,1.0674,-6.159,30.976,-74.146,1.8033,100726.56
1.6255,0.0996,0.7808,-27.073,-2.439,-108.841,1.806,100726.82
1.1074,0.0317,0.311,-44.939,32.256,-69.207,1.1507,100726.96
0.5747,-0.0332,-0.334,-62.683,49.39,-10.183,0.6655,100726.24
0.4316,0.0215,-0.416,-14.634,35.854,27.561,0.5999,100727.39
0.6133,0.3198,0.0835,27.317,14.024,38.476,0.6967,100727.91
0.7827,-0.0376,-0.4419,-6.768,-39.024,47.744,0.8996,100727.79
1.1958,-0.0332,0.1411,108.963,-13.963,30.183,1.2046,100727.44
1.54,0.394,1.0576,161.402,15.305,-7.195,1.9093,100727.63
1.6963,0.2256,0.7783,94.573,-20.244,-37.256,1.8799,100727.67
1.3804,-0.0059,0.5342,52.134,8.354,-20.183,1.4801,100727.44
0.6333,-0.3506,0.188,-21.28,61.28,11.402,0.7479,100728.35
0.1748,-0.457,-0.3521,-102.012,3.049,18.72,0.6028,100728.18
0.4175,-0.2705,-0.2324,-121.89,-60.732,8.049,0.5491,100728.28
0.7046,-0.0464,-0.0913,-139.329,-80.854,15.0,0.712,100728.02
1.1021,0.0181,-0.1577,-101.28,-76.463,13.171,1.1134,100727.8
1.5059,0.0767,0.7739,19.085,-3.415,-10.061,1.6948,100728.34
1.5649,0.3115,1.1245,55.61,57.134,-38.537,1.9521,100728.27
1.4731,0.2202,0.5591,44.39,49.451,-49.451,1.591,100728.54
0.8433,0.0347,0.0205,42.073,85.488,-22.927,0.8442,100728.49
0.4404,0.0483,-0.3003,31.524,65.061,12.378,0.5352,100727.82
0.5137,0.1348,-0.2158,42.195,7.927,31.402,0.5732,100727.81
0.6743,0.1641,-0.0977,49.451,-43.293,43.354,0.7008,100727.84
1.2202,0.0137,-0.1782,95.61,-90.549,56.463,1.2332,100727.19
1.6401,0.5732,0.8872,249.451,-15.915,75.305,1.9508,100727.4
1.7061,0.5,1.3384,230.305,12.622,92.012,2.2253,100727.74
1.2285,-0.1641,0.498,146.159,6.28,118.963,1.3357,100727.87
0.3823,-0.1777,0.3052,121.829,54.634,131.768,0.5205,100727.38
-0.0835,-0.4146,-0.3555,28.293,-5.427,123.72,0.5524,100727.27
0.1724,-0.3853,-0.4336,29.024,-79.939,99.756,0.6051,100726.66
0.8071,0.0425,0.062,64.878,-95.61,79.817,0.8106,100726.51
1.2837,0.1738,0.4365,124.878,-61.646,64.329,1.367,100725.76
1.3789,0.3281,1.4341,178.232,11.707,27.073,2.0163,100726.05
1.1587,0.0088,1.002,87.134,49.634,-3.537,1.5318,100726.02
1.0117,-0.5005,0.2246,45.183,45.427,-24.146,1.1509,100725.88
0.9512,-0.2778,0.3115,85.549,34.878,-30.488,1.0387,100725.78
0.8628,-0.2124,0.1509,65.488,-6.098,-11.707,0.9013,100726.2
0.9307,-0.0586,-0.0171,60.732,-51.524,18.598,0.9327,100726.03
1.2832,0.1035,-0.1475,86.646,-65.732,49.451,1.2958,100726.62
1.6011,0.3271,0.3608,198.537,5.61,71.402,1.6735,100726.6
1.5586,0.8076,1.3115,237.5,54.695,71.951,2.1912,100726.96
1.2817,0.123,0.4932,125.061,2.195,60.854,1.3788,100726.73
1.0361,-0.0576,0.2998,135.0,4.573,32.988,1.0802,100726.67
0.6343,-0.1919,0.269,119.817,13.293,25.061,0.7152,100727.25
0.2524,-0.3604,0.043,85.427,-6.463,21.28,0.4421,100726.83
0.2368,-0.3203,-0.1079,61.159,-61.585,14.268,0.4127,100726.52
0.4893,-0.3076,-0.2505,41.524,-104.085,22.561,0.6299,100725.17
0.8931,-0.1533,-0.1968,68.232,-94.451,39.207,0.9273,100726.12
1.3901,0.0854,0.3799,126.707,-53.049,30.244,1.4436,100726.45
1.5991,0.041,0.6562,118.232,-34.817,32.866,1.729,100727.22
1.3203,-0.0532,0.4463,90.61,15.244,40.183,1.3947,100727.27
0.98,-0.0752,0.3369,72.561,50.732,19.939,1.039,100726.98
0.9053,-0.0332,0.2271,53.841,47.927,-25.854,0.9339,100726.87
0.8877,0.0562,0.2256,52.744,39.939,-69.146,0.9176,100726.7
0.8975,0.0908,0.3423,47.439,34.512,-86.341,0.9648,100727.26
0.9648,-0.0605,0.1592,16.89,14.268,-62.866,0.9798,100727.3
0.856,-0.1177,-0.106,18.049,-5.732,-21.28,0.8705,100727.35
0.772,0.0005,-0.0894,49.695,-31.22,16.22,0.7771,100727.59
0.9048,0.1558,-0.1079,91.768,-36.159,33.415,0.9244,100727.29
1.2559,0.5547,0.5635,174.146,-10.61,8.78,1.484,100728.02
1.8145,0.499,0.5894,157.073,-45.488,-18.78,1.972,100728.25
2.0415,0.1895,0.3906,150.549,-16.89,-5.122,2.0872,100727.79
1.3257,0.0669,0.5083,119.817,103.598,47.5,1.4214,100728.05
0.3291,-0.2764,0.0571,4.939,118.049,79.085,0.4335,100728.23
0.1265,-0.4541,-0.2749,-74.756,6.159,64.878,0.5457,100728.77
0.48,-0.3052,-0.1812,-92.744,-58.232,42.195,0.5969,100728.9
1.2085,0.0454,0.7285,-4.817,-28.232,21.829,1.4118,100728.37
1.2026,0.104,1.0474,-9.451,27.134,-15.427,1.5982,100728.48
1.4424,0.1445,0.98,2.073,14.085,-66.159,1.7498,100728.7
1.3457,0.2886,0.9844,5.915,21.89,-73.78,1.6921,100728.83
0.749,0.0562,0.147,-62.622,49.878,-48.049,0.7654,100728.66
0.605,-0.0664,-0.3247,-64.329,22.988,-18.841,0.6898,100728.79
0.668,0.02,-0.2734,-18.476,18.171,22.622,0.722,100727.42
0.5947,0.1968,-0.1499,25.366,19.268,59.939,0.6441,100727.37
0.9307,0.0723,-0.1016,70.915,-41.707,70.305,0.939,100727.46
1.2974,0.3774,0.7441,177.805,-35.671,67.317,1.5425,100727.64
1.3218,0.5654,1.416,174.268,1.28,33.902,2.0179,100727.88
1.3179,0.1348,0.8716,71.28,-30.122,-7.5,1.5857,100727.96
1.1104,-0.1577,0.3086,6.037,-41.585,-14.268,1.1632,100727.65
0.6016,-0.4966,-0.1221,-32.378,-11.829,10.0,0.7895,100727.53
0.2109,-0.4414,0.0049,-39.451,-13.476,27.073,0.4892,100727.45
0.2456,-0.1445,0.1807,-82.866,-49.39,29.329,0.3374,100727.88
0.5601,0.0122,-0.0884,-125.183,-68.476,23.659,0.5671,100728.09
1.0522,0.0757,0.4458,-61.28,-48.598,-9.756,1.1453,100728.26
1.2734,0.0366,0.8789,-24.756,6.341,-50.122,1.5477,100728.6
1.6147,0.3374,0.9897,11.646,29.207,-101.098,1.9238,100729.48
1.4834,0.3486,0.7036,19.695,45.488,-112.378,1.6784,100730.39
0.9502,0.0884,0.0952,5.793,72.561,-98.476,0.959,100729.94
1.0552,0.0459,-0.0552,4.756,22.927,-71.707,1.0576,100729.98
0.8701,-0.0703,-0.4458,-22.988,-4.756,7.927,0.9802,100729.75
0.3667,0.0015,-0.4697,16.829,7.683,77.5,0.5959,100729.59
0.5342,0.248,0.0464,77.866,-28.537,83.11,0.5908,100730.08
1.0908,0.4307,0.752,117.988,-35.549,45.854,1.3931,100730.41
1.457,0.4048,1.0356,107.378,-2.378,5.793,1.8329,100730.28
1.8447,0.2251,0.8188,69.329,-15.183,-2.805,2.0308,100729.94
1.4756,0.042,0.5488,29.878,13.902,35.793,1.5749,100729.83
0.6284,-0.1729,0.0869,-26.89,38.72,67.5,0.6575,100729.7
0.1387,-0.2725,-0.167,-80.305,-7.683,56.402,0.3484,100729.62
0.2002,-0.1167,-0.1577,-113.354,-61.098,30.854,0.2803,100728.59
0.5586,0.04,-0.0527,-121.28,-87.805,25.488,0.5625,100728.44
1.0474,-0.1108,-0.0156,-77.561,-68.659,28.537,1.0533,100729.15
1.2866,-0.0674,1.0737,30.183,39.695,-3.963,1.6771,100728.95
1.6392,0.042,0.6699,-65.061,13.049,-114.573,1.7713,100727.93
0.9844,-0.2207,-0.2295,-93.841,42.866,-77.012,1.0346,100727.64
0.4004,-0.1636,-0.5264,-71.159,57.317,-21.037,0.6813,100728.04
0.2861,-0.0786,-0.4702,-22.134,19.695,14.512,0.556,100727.62
0.4468,0.2554,0.1704,29.573,-35.854,23.902,0.5421,100727.27
0.9399,0.2769,0.0913,19.634,-103.598,22.5,0.9841,100727.25
1.5151,0.4131,0.6572,107.561,-65.976,17.622,1.7024,100727.21
1.6963,0.7539,0.9214,124.268,30.427,4.512,2.0724,100727.52
1.5996,0.2065,0.1846,70.732,38.659,-5.122,1.6234,100727.05
1.3252,0.0171,0.1294,92.683,28.415,16.707,1.3316,100727.88
0.8359,-0.1406,0.1016,57.439,44.878,44.268,0.8537,100727.89
0.395,-0.3887,-0.1929,-16.037,14.451,55.122,0.5868,100728.3
0.2979,-0.3042,-0.0693,-35.244,-42.744,51.098,0.4313,100728.23
0.5107,0.0156,0.3408,-60.305,-87.988,41.341,0.6142,100728.41
0.8901,-0.0752,-0.1455,-102.805,-120.671,33.171,0.9051,100728.2
1.502,-0.1646,0.4956,6.89,-48.476,16.28,1.5901,100728.66
1.562,0.1792,0.9468,54.451,71.951,28.049,1.8353,100728.62
1.2471,-0.0132,0.4834,38.049,130.244,20.732,1.3375,100727.48
0.9556,0.0015,0.23,58.415,107.988,13.841,0.9829,100727.12
0.6328,0.0493,0.0107,44.268,79.329,9.817,0.6348,100727.84
0.5718,-0.0752,-0.2559,16.829,25.488,18.049,0.6309,100727.78
0.644,0.1201,-0.1548,27.622,-29.878,42.866,0.6732,100726.98
0.8721,0.208,-0.1606,58.049,-80.671,60.671,0.9108,100727.12
1.2544,0.4487,0.2852,170.244,-63.232,71.585,1.3624,100727.85
1.6045,0.3413,1.0493,203.415,-13.415,60.976,1.9473,100727.84
1.1626,0.0864,0.6655,178.841,43.476,66.463,1.3424,100727.16
0.6885,-0.0439,0.4517,131.646,43.354,60.366,0.8246,100727.66
0.438,-0.4463,0.0054,66.707,-12.012,52.5,0.6253,100727.98
0.4258,-0.3857,-0.1235,52.561,-44.085,55.671,0.5877,100727.39
0.5117,-0.2002,-0.3364,37.744,-74.817,69.695,0.6443,100726.21
0.7974,-0.1362,-0.4839,70.915,-87.5,83.476,0.9426,100726.06
1.0142,0.1411,0.3389,211.89,1.89,67.683,1.0785,100725.45
1.2227,0.501,1.9932,251.098,33.537,13.11,2.3914,100725.48
1.417,0.2705,1.54,78.171,-51.646,-35.061,2.1102,100725.85
1.0073,0.0488,0.5732,-17.683,-26.951,-51.463,1.16,100726.08
0.6875,0.126,0.144,-38.72,3.659,-49.756,0.7136,100725.71
0.6016,-0.0576,-0.3291,-65.732,-14.817,-30.244,0.6881,100726.03
0.627,0.0293,-0.3213,-23.293,-37.622,7.622,0.7051,100725.81
0.8735,0.3125,-0.3765,52.317,-66.768,52.195,1.0012,100726.37
1.4316,0.4097,0.0386,208.11,-40.671,63.78,1.4896,100727.16
1.7915,0.9243,1.1831,316.768,48.171,56.768,2.3374,100727.85
1.7427,0.5498,0.8008,206.341,82.805,45.122,1.9951,100728.02
1.2104,-0.0361,0.04,120.854,83.232,53.598,1.2117,100728.02
0.6982,-0.3433,-0.1938,97.622,70.976,66.28,0.8018,100728.04
0.4023,-0.4341,-0.147,91.646,75.366,64.207,0.6098,100727.91
0.4971,-0.1909,-0.0225,60.854,20.976,49.756,0.5329,100727.93
0.8887,-0.0986,-0.1392,5.732,-65.793,39.024,0.9049,100728.34
1.2539,0.3467,0.3267,29.634,-82.988,13.537,1.3413,100728.25
1.4697,0.437,0.6196,8.72,-83.598,-20.915,1.6538,100728.2
1.5137,0.314,0.5342,14.634,-51.585,-45.061,1.6356,100728.77
1.5068,0.4971,0.9507,84.451,6.89,-58.78,1.8497,100729.32
0.3848,0.0684,0.2412,-15.915,28.049,-41.28,0.4592,100728.62
0.4292,-0.0054,-0.436,-48.78,-51.585,-7.744,0.6119,100728.24
0.5659,0.1533,-0.3823,36.037,-37.012,12.5,0.7,100728.8
1.1631,0.1289,-0.1821,137.134,-62.378,24.817,1.1843,100729.11
1.6392,0.3179,0.3003,282.378,4.695,53.476,1.6965,100729.17
1.896,1.1865,1.6689,348.537,87.195,50.427,2.7907,100729.75
1.6621,0.3472,0.8677,161.22,7.134,54.878,1.9068,100728.84
0.9985,-0.292,-0.0879,83.598,-12.561,72.561,1.0441,100729.03
0.3037,-0.458,-0.1533,88.476,43.049,84.451,0.5705,100729.04
-0.042,-0.2861,0.2495,56.463,24.146,61.159,0.382,100728.94
0.1025,-0.2583,0.0435,-48.963,-56.524,36.524,0.2813,100728.94
0.4434,-0.2085,-0.249,-88.841,-77.988,28.963,0.5496,100728.96
0.9746,0.1187,0.0483,-36.463,-54.268,19.329,0.983,100728.47
1.2593,0.084,0.7051,-8.72,3.78,-23.293,1.4457,100727.97
1.4541,0.1846,0.8193,-14.207,15.427,-76.463,1.6792,100728.47
1.9204,0.4814,0.9863,-16.829,-17.317,-113.293,2.2119,100728.73
1.3784,0.0669,0.1479,-82.195,29.817,-69.207,1.3879,100729.0
0.6714,-0.1143,-0.4116,-62.5,75.305,-1.89,0.7958,100729.45
0.3662,0.0,-0.4448,-9.085,64.756,37.683,0.5762,100729.8
0.2939,0.0723,-0.1562,39.268,26.768,50.305,0.3406,100729.58
0.7769,0.186,0.0435,67.073,-55.854,51.524,0.8,100729.62
1.3887,0.2671,0.5444,131.707,-37.012,50.671,1.5153,100728.54
1.4839,0.4287,1.168,151.159,41.768,40.549,1.9365,100729.5
1.5142,0.1943,0.9248,84.085,9.451,13.415,1.7849,100730.18
1.4429,0.1768,0.6304,33.415,-40.549,7.317,1.5845,100729.47
0.8062,-0.1792,-0.104,-30.183,2.683,27.378,0.8324,100728.32
0.1582,-0.3735,-0.4429,-28.78,34.512,48.72,0.6006,100728.3
0.1123,-0.228,-0.1328,-18.354,-2.317,48.171,0.2868,100727.78
0.4307,-0.105,0.2451,-44.756,-22.378,43.354,0.5065,100728.16
0.7881,0.1348,0.2896,-78.963,-22.927,30.549,0.8503,100728.67
1.0952,-0.1992,0.5083,-65.732,-7.073,-25.793,1.2237,100727.95
1.4053,0.0918,0.998,-6.89,-6.22,-80.61,1.7261,100728.77
1.8306,0.3423,1.2563,3.293,-33.78,-120.183,2.2465,100729.74
1.2837,0.0503,0.4194,-50.732,13.598,-97.927,1.3514,100729.7
0.8125,0.0723,-0.0933,-62.622,37.744,-54.939,0.821,100729.57
0.561,0.0215,-0.5308,-72.988,11.524,5.305,0.7726,100729.36
0.3945,0.0688,-0.3623,-14.756,-6.829,46.037,0.5401,100729.03
0.5762,0.1924,0.0005,24.207,-39.146,57.195,0.6074,100728.32
1.0005,-0.1328,0.1064,53.659,-29.085,49.756,1.0149,100727.77
1.1616,0.0176,0.8481,138.537,29.878,36.707,1.4384,100727.85
1.499,0.187,1.0049,127.5,-6.22,-6.89,1.8143,100727.66
1.8477,0.1914,0.7695,94.878,-47.439,-22.256,2.0106,100728.38
1.3569,0.0664,0.4727,54.024,28.415,27.561,1.4384,100727.3
0.397,-0.1768,0.0737,-12.439,88.293,71.402,0.4408,100726.54
0.0137,-0.2271,-0.2207,-76.829,28.537,51.524,0.3169,100727.28
0.2837,-0.1685,-0.2798,-112.378,-66.159,18.72,0.4326,100727.37
0.7485,-0.1621,-0.3701,-108.476,-102.134,22.866,0.8506,100727.3
1.5522,0.2358,1.3794,20.061,3.293,-125.854,2.0899,100728.74
1.8442,0.2627,0.7485,-67.927,-49.146,-150.61,2.0076,100728.7
1.1758,-0.1382,-0.2549,-119.451,34.268,-82.5,1.211,100728.17
0.5425,-0.2373,-0.7153,-68.841,55.244,7.988,0.9286,100728.76
0.334,-0.0156,-0.2144,21.341,25.061,49.878,0.3972,100729.06
0.6392,0.2617,0.3472,36.341,-52.805,57.683,0.773,100727.91
1.1919,0.0986,0.2681,34.451,-70.305,57.561,1.2256,100728.24
1.3979,0.2114,0.8862,113.902,30.0,50.183,1.6686,100726.56
1.2427,0.1807,0.853,98.841,39.695,26.463,1.5181,100725.28
1.4092,0.0435,0.6543,67.866,-24.512,-12.866,1.5543,100725.1
1.1299,-0.0249,0.3301,27.012,-5.61,-5.244,1.1774,100725.3
0.5493,-0.2603,-0.1665,-14.085,39.512,18.415,0.6302,100725.06
0.2969,-0.2173,-0.2676,-33.659,9.451,27.927,0.4549,100725.21
0.354,-0.126,-0.2324,-60.854,-46.037,31.037,0.4418,100726.43
0.6426,-0.1265,-0.2847,-70.061,-81.341,38.415,0.7141,100725.97
0.8916,-0.1436,0.1987,14.39,-34.451,33.232,0.9247,100725.96
1.1646,0.1113,1.2075,81.098,19.146,-17.683,1.6813,100726.66
1.7256,0.21,1.1948,46.098,4.695,-84.451,2.1093,100727.07
1.8989,0.0562,0.6758,24.451,18.902,-78.902,2.0164,100727.17
1.1904,-0.0337,0.1108,26.159,93.659,-16.037,1.1961,100726.87
0.4351,-0.021,-0.1743,35.0,99.268,35.061,0.4692,100726.77
0.0298,0.0796,-0.2471,21.037,61.707,50.122,0.2613,100726.69
0.1475,0.1338,-0.1279,10.305,-24.878,38.963,0.2367,100726.15
1.4595,0.3369,0.3271,136.89,-71.707,48.293,1.5332,100726.3
1.6357,0.8188,1.5752,232.622,37.5,53.537,2.414,100726.32
1.5288,0.2412,0.8862,133.354,16.829,49.451,1.7835,100726.92
1.4253,0.1548,0.4033,139.451,1.037,58.72,1.4893,100727.86
0.9907,0.2231,0.3794,142.195,23.049,86.463,1.0841,100728.19
0.3384,-0.2104,-0.1123,72.5,20.732,106.829,0.414,100727.27
0.1133,-0.2041,-0.209,45.61,-21.402,111.22,0.3133,100727.27
0.3818,-0.0024,-0.1929,33.537,-60.427,94.939,0.4278,100725.23
0.9214,0.2837,0.2676,123.415,-51.463,59.634,1.0005,100725.88
1.6055,0.5034,1.4033,202.195,-44.39,8.72,2.191,100726.38
1.9941,0.4077,1.2983,162.5,-32.866,-5.488,2.4142,100726.65
1.436,0.124,0.7246,129.268,41.463,22.805,1.6133,100726.38
0.6323,0.0269,0.5166,111.707,98.293,24.512,0.817,100725.47
0.2295,-0.1934,0.1641,55.427,51.829,8.72,0.342,100724.63
0.2661,-0.3354,-0.1147,25.671,-10.122,-3.293,0.4433,100724.99
0.5898,-0.0493,-0.0796,69.512,-54.695,41.037,0.5972,100724.65
0.9897,0.2798,-0.0347,120.976,-66.28,70.671,1.0291,100724.52
1.5405,0.5352,0.3604,201.89,-37.5,65.061,1.6702,100724.2
1.9258,0.6357,0.7036,260.976,-1.707,66.037,2.1466,100724.34
1.8169,0.7661,0.8545,263.963,52.561,60.549,2.149,100724.43
1.3032,0.2808,0.4395,177.073,77.256,36.463,1.4037,100724.28
0.9976,-0.3838,-0.209,110.915,56.524,33.293,1.0891,100725.12
0.8428,-0.3657,-0.0659,125.549,61.037,46.098,0.9211,100725.63
0.439,-0.2168,0.1973,75.854,19.756,72.378,0.5278,100726.02
0.4404,-0.3423,0.0181,-5.305,-49.939,72.561,0.5581,100725.91
0.7388,-0.084,0.0474,-3.598,-65.366,68.049,0.745,100726.23
1.0508,0.2148,0.5293,18.11,-47.378,42.805,1.196,100725.04
1.1191,0.2354,0.6147,5.183,-23.232,5.305,1.2984,100725.73
1.5034,0.4233,0.7407,26.524,-8.78,-40.732,1.7286,100726.23
1.6558,0.3721,0.7495,41.28,38.293,-54.695,1.8552,100726.71
1.1616,0.1797,0.3628,29.329,99.695,-40.976,1.2302,100727.09
0.8682,-0.103,-0.1943,-2.805,56.768,-0.976,0.8956,100726.89
0.5039,-0.0952,-0.4512,14.817,28.659,53.537,0.683,100726.87
0.3516,0.1787,0.0386,80.244,7.927,85.122,0.3963,100726.5
0.5015,0.1904,0.438,109.39,-14.329,67.5,0.6925,100726.56
0.9272,0.2104,0.98,156.402,-28.11,25.61,1.3654,100726.73
1.7188,0.5786,1.6582,166.768,-54.878,-10.427,2.4573,100726.95
1.8525,0.2798,1.0381,75.305,-26.707,-1.402,2.1419,100727.32
1.2188,-0.2158,0.1841,33.11,30.0,36.646,1.2513,100727.85
0.5093,-0.4189,-0.0381,38.537,42.5,61.707,0.6606,100727.62
0.1973,-0.3628,0.1274,14.573,2.134,49.939,0.4322,100727.54
0.2886,-0.2979,-0.0015,-54.329,-52.683,33.963,0.4147,100727.15
0.4766,-0.1592,-0.0566,-91.341,-67.5,32.5,0.5056,100727.26
0.8516,0.0176,0.1118,-75.671,-72.012,23.476,0.8591,100727.07
1.2852,0.0493,0.832,-18.78,-45.61,-10.427,1.5318,100728.34
1.3369,0.0635,0.9995,-13.354,16.829,-51.22,1.6704,100728.73
1.5029,0.1118,0.9326,20.061,25.793,-90.366,1.7723,100729.23
1.1299,0.1328,0.8413,43.902,55.305,-91.89,1.4149,100728.67
0.7417,-0.0542,0.3066,2.622,42.256,-72.317,0.8044,100728.13
0.7612,-0.146,-0.2144,-25.0,-9.146,-28.049,0.8042,100728.31
0.4614,-0.0474,-0.2451,2.012,3.78,26.646,0.5246,100727.62
0.2554,0.2383,0.1021,28.354,-9.573,51.646,0.3639,100727.56
0.5796,0.1714,0.0356,33.415,-59.878,39.451,0.6054,100727.54
1.3145,0.2954,0.7583,127.683,-57.866,7.927,1.546,100728.09
1.8408,0.5083,1.4102,153.049,-21.28,-11.524,2.3739,100728.25
1.8916,0.144,0.8379,87.073,0.976,3.415,2.0739,100728.52
1.2002,-0.0244,0.2354,56.768,50.854,47.988,1.2233,100728.23
0.4302,-0.3096,-0.1763,24.817,64.512,64.146,0.5585,100727.06
0.0796,-0.4253,-0.2241,-14.817,26.524,54.024,0.4873,100726.56
0.2104,-0.2822,-0.2134,-66.22,-19.024,33.171,0.4117,100726.87
0.5889,-0.2456,0.1338,-98.171,-57.805,15.366,0.6519,100726.61
0.8862,-0.0371,0.4097,-95.793,-75.427,1.22,0.977,100726.77
1.2856,0.0913,1.186,-38.415,-33.232,-50.366,1.7515,100727.61
1.6504,0.3853,1.5386,-23.659,14.939,-104.573,2.289,100727.88
1.6807,0.1592,0.6562,-63.598,10.549,-106.098,1.8113,100728.41
1.0493,-0.1313,-0.1577,-40.976,79.817,-38.963,1.0692,100727.84
0.5059,0.0068,-0.1255,4.451,112.012,19.756,0.5212,100728.17
0.3066,0.0562,-0.0659,-7.622,58.476,39.329,0.3186,100728.36
0.3574,0.2153,0.0317,-22.5,-16.402,38.659,0.4185,100727.8
0.7773,0.1465,-0.2412,-15.549,-80.305,34.085,0.827,100727.48
1.3564,0.4043,0.7139,115.915,-60.549,23.902,1.5852,100727.72
1.8369,0.6885,1.5132,145.671,-36.524,-11.037,2.4775,100729.46
2.0361,0.0776,0.5566,66.28,-55.366,-7.927,2.1123,100730.53
1.2051,-0.1694,-0.0034,79.573,52.866,73.232,1.2169,100730.23
-0.3096,-0.4541,-0.3145,-29.512,27.256,72.195,0.6332,100730.08
0.2622,-0.2925,0.0542,-67.805,-67.5,11.646,0.3965,100730.16
0.7803,-0.2515,0.1855,-111.89,-91.585,-1.89,0.8405,100729.23
1.0938,-0.084,0.5288,-54.268,-59.39,-13.72,1.2178,100728.66
1.4351,0.3223,1.5146,3.537,-5.976,-65.915,2.1113,100729.32
1.6021,0.3174,1.269,-35.061,13.963,-121.22,2.0683,100729.72
1.5645,0.0757,0.6821,-47.378,29.329,-113.171,1.7084,100730.36
1.0366,-0.1807,-0.1929,-62.744,77.927,-40.671,1.0698,100730.47
0.4858,-0.144,-0.6284,-28.232,71.037,37.134,0.8073,100730.09
0.2524,0.29,-0.0723,35.976,29.268,62.866,0.3912,100729.55
0.4956,0.2822,0.1553,9.817,-56.402,44.634,0.5911,100728.79
1.1104,0.1572,0.0972,39.817,-82.073,32.988,1.1256,100727.98
1.6138,0.6948,1.0713,166.402,4.146,29.756,2.0578,100727.87
2.0786,0.5312,1.1719,147.561,6.037,24.695,2.4446,100728.62
1.7207,0.0215,0.5049,107.622,7.012,73.232,1.7934,100728.09
0.6016,-0.1592,0.083,102.439,71.402,123.171,0.6278,100728.56
-0.0767,-0.3936,-0.0552,71.22,39.939,107.805,0.4047,100728.79
-0.1182,-0.4131,-0.0728,19.939,-22.988,72.561,0.4358,100728.95
-0.0649,-0.1719,0.0713,-18.171,-26.341,47.317,0.1971,100728.21
0.3833,-0.0894,0.1685,-69.695,-74.207,8.963,0.4281,100727.65
1.2588,0.1597,0.4165,-26.28,-118.232,-31.341,1.3355,100727.24
2.0791,0.6348,1.5234,58.354,-66.585,-61.098,2.6545,100728.52
1.7603,0.3506,1.0342,14.817,44.146,-40.732,2.0715,100728.02
1.0083,0.0376,0.1187,-8.171,78.902,-7.073,1.016,100728.24
0.1294,0.0933,-0.5029,5.488,34.207,25.488,0.5276,100727.38
0.9199,0.2256,-0.3726,39.634,-88.049,30.61,1.0178,100726.42
1.8965,0.5796,0.2993,182.134,-72.378,68.72,2.0055,100727.17
1.6543,1.3213,1.7451,292.622,73.476,94.817,2.7437,100727.37
1.417,0.0762,-0.1875,109.39,-42.622,71.098,1.4314,100728.55
0.5581,-0.1362,-0.2744,156.037,30.549,104.512,0.6367,100728.23
0.0195,-0.1895,0.0264,162.5,23.537,99.634,0.1923,100728.23
0.0898,-0.0957,0.188,106.402,-45.0,70.732,0.2293,100728.84
0.5005,0.0547,-0.1094,49.634,-87.073,39.939,0.5152,100727.98
1.2568,0.4561,0.4297,134.024,-73.232,-13.659,1.4044,100728.04
2.23,0.8359,1.7437,179.451,-41.098,-49.573,2.9516,100728.7
1.9678,0.5171,1.1279,99.939,59.512,-25.366,2.3263,100728.55
1.1338,0.2168,0.376,70.732,112.866,-1.037,1.214,100728.49
0.4136,-0.0698,-0.2109,43.963,105.183,13.049,0.4695,100728.2
0.1592,-0.2378,-0.6343,50.061,48.598,20.183,0.6958,100728.94
0.4214,-0.1533,-0.3179,107.439,-13.232,28.963,0.5497,100728.62
0.6934,0.2427,0.1421,155.61,-43.476,67.317,0.7482,100728.04
1.2612,0.5,0.0825,172.012,-90.305,98.354,1.3592,100727.7
1.7383,0.7207,0.7725,252.927,-8.476,92.439,2.0341,100728.36
1.5298,0.7959,1.1206,236.646,70.671,68.049,2.0566,100729.03
1.7524,0.4517,0.8086,158.598,-6.89,19.817,1.9821,100728.59
1.3696,-0.0747,0.0908,83.171,-2.378,25.976,1.3747,100728.99
0.3545,-0.4966,-0.1738,78.902,75.549,51.402,0.6344,100730.24
0.0635,-0.3672,0.0796,63.902,40.732,45.305,0.381,100730.59
0.2422,-0.3208,-0.146,-7.439,-26.159,32.012,0.4276,100730.48
0.7925,-0.0889,-0.1274,-24.756,-56.829,32.561,0.8076,100729.66
1.2783,0.2476,0.2588,-4.451,-27.5,22.317,1.3275,100730.13
1.4326,0.2246,0.6465,8.476,2.317,-7.439,1.5877,100730.61
1.6816,0.3613,0.8848,41.646,29.817,-45.793,1.9342,100729.64
1.2231,0.168,0.9194,62.744,78.841,-38.963,1.5394,100730.2
0.2778,0.146,0.6333,18.476,91.037,-23.232,0.7068,100730.42
0.5283,-0.0654,-0.2729,-71.707,-16.768,-27.561,0.5983,100730.83
0.6406,-0.1641,-0.6016,-27.805,-21.829,21.646,0.894,100730.3
0.5786,0.2969,0.1235,78.659,4.207,68.11,0.662,100730.98
1.0,0.4194,0.7803,119.085,-26.402,58.11,1.3359,100731.12
1.4453,0.7397,1.7388,146.463,4.085,-5.976,2.379,100730.34
2.1201,0.5977,1.3198,38.049,-66.402,-49.451,2.5679,100731.01
1.832,-0.1313,-0.2036,-33.415,-64.695,11.28,1.848,100730.78
0.6626,-0.2446,-0.4736,57.744,64.939,97.073,0.8504,100731.52
-0.144,-0.1069,0.0933,87.805,70.366,108.537,0.2022,100730.07
-0.0469,-0.1719,0.2368,-13.171,-24.634,55.854,0.2963,100729.21
0.3848,-0.1616,0.0527,-103.11,-65.488,20.366,0.4207,100728.45
0.647,-0.1016,-0.064,-132.134,-72.744,21.037,0.658,100729.22
1.1016,-0.0557,0.356,-70.0,-81.463,-5.793,1.159,100729.56
1.4971,0.0269,1.1982,-5.61,-25.671,-51.159,1.9177,100729.42
1.6191,0.2227,1.2954,-4.39,41.22,-87.195,2.0855,100730.15
1.3901,0.0708,0.8032,-17.256,65.244,-86.829,1.6071,100730.43
0.9351,-0.0107,0.2954,-26.098,89.695,-45.305,0.9807,100730.16
0.7197,-0.083,-0.3208,-42.012,58.293,8.232,0.7923,100730.94
0.1719,-0.1382,-0.6538,-11.402,65.488,62.073,0.69,100730.41
-0.1338,0.2251,0.0659,51.646,43.78,60.915,0.27,100729.66
0.5234,0.1768,0.3867,26.28,-75.183,6.098,0.6744,100729.09
1.4238,0.3589,0.9849,66.951,-110.793,-37.439,1.7681,100729.52
2.1211,0.5552,1.2617,71.098,-83.415,-64.024,2.5297,100730.57
2.3779,0.2178,0.6616,44.817,-58.415,-34.39,2.4778,100731.2
1.4346,-0.0273,0.0562,54.756,31.098,57.561,1.4359,100730.21
0.0952,-0.0889,-0.1421,47.5,76.768,99.878,0.1928,100729.5
-0.1841,-0.1855,-0.2261,-21.829,-2.561,41.951,0.3456,100729.93
0.4824,-0.2808,-0.0708,-79.085,-69.573,-10.427,0.5626,100730.02
0.6211,-0.2539,0.1548,-107.988,-55.244,3.659,0.6886,100729.84
0.7236,-0.144,0.1699,-88.659,-70.427,-0.549,0.7571,100730.2
1.4355,0.042,1.1304,-13.78,-78.841,-48.537,1.8276,100731.19
1.7505,0.085,1.0835,-21.89,-5.915,-61.829,2.0604,100730.84
1.6621,0.104,0.8081,6.463,61.28,-53.902,1.8511,100730.07
1.04,0.021,0.2754,12.5,109.146,-28.963,1.0761,100730.45
0.4756,-0.0273,-0.1475,2.927,91.402,-12.561,0.4987,100730.63
0.29,0.0093,-0.2842,-10.061,24.756,-1.524,0.4062,100730.75
0.2354,0.126,-0.1758,-8.659,-8.232,8.232,0.3196,100730.09
0.4604,0.21,-0.1836,-3.171,-45.305,9.512,0.5383,100729.87
1.248,0.2446,0.167,78.11,-62.5,8.78,1.2827,100729.45
1.7188,0.5176,1.2603,178.72,12.195,30.61,2.1932,100729.87
1.6128,0.3604,1.2861,132.073,67.378,26.951,2.0941,100730.55
1.5239,0.042,0.6777,69.085,26.768,18.232,1.6684,100729.97
1.0576,-0.1919,0.1079,41.159,38.72,31.951,1.0803,100730.76
0.4507,-0.4224,-0.2036,23.841,42.622,46.28,0.6504,100730.99
0.2529,-0.3833,-0.1724,-9.695,1.524,37.805,0.4905,100729.84
0.4678,-0.2803,-0.0908,-61.22,-60.61,25.915,0.5528,100727.98
0.7461,-0.2681,0.001,-98.415,-88.841,34.268,0.7928,100726.5
1.1016,-0.0176,0.373,-54.085,-71.829,36.585,1.1631,100726.47
1.4893,0.0889,1.2856,-7.439,-19.146,1.951,1.9694,100727.42
1.4849,0.145,1.2681,-23.72,47.317,-37.561,1.958,100728.82
1.4785,0.1353,0.9224,-22.012,56.524,-63.415,1.7479,100729.26
0.8525,0.1602,0.3618,-30.244,93.11,-48.841,0.9399,100729.49
0.4087,0.0298,-0.3052,-63.841,61.159,-28.415,0.5109,100728.55
0.3848,-0.0391,-0.5693,-56.037,8.72,0.305,0.6883,100728.74
0.2798,0.252,-0.0317,6.037,-1.159,28.902,0.3778,100728.59
0.6006,0.3276,0.0791,3.78,-69.695,28.902,0.6887,100729.09
1.3774,0.1802,0.0449,66.707,-78.537,38.232,1.3899,100729.59
1.7495,0.5425,1.1255,209.817,40.61,66.829,2.1498,100729.21
1.8408,0.4321,1.4849,186.098,69.207,59.329,2.4042,100729.4
1.561,-0.0166,0.7998,97.195,40.915,49.39,1.7541,100730.29
0.8823,-0.3223,-0.0103,43.232,32.927,57.5,0.9394,100729.62
0.437,-0.4771,-0.3843,28.049,11.89,63.963,0.7525,100729.2
0.1504,-0.2983,0.0366,-7.988,-29.146,72.256,0.3361,100728.43
0.4399,-0.1797,0.4502,-46.098,-64.878,45.915,0.6546,100728.12
0.6226,0.0049,0.6821,-32.805,-68.841,-2.5,0.9235,100728.09
1.4092,0.3843,1.5381,7.439,-90.488,-87.805,2.1211,100728.43
1.7627,0.2949,1.2524,-43.293,-55.488,-118.293,2.1824,100727.58
1.2495,0.1514,0.4141,-57.866,17.439,-79.756,1.325,100728.87
0.6626,0.2051,-0.1401,-39.695,64.39,-41.768,0.7076,100729.49
0.3628,0.1006,-0.4316,-25.122,49.634,-16.829,0.5728,100729.82
0.4619,0.2212,-0.4014,11.402,-13.72,21.524,0.6507,100730.71
0.9087,0.4536,-0.1621,62.317,-71.89,73.11,1.0285,100729.52
1.4463,0.4727,-0.1992,170.61,-56.646,135.244,1.5346,100728.66
1.4023,0.998,0.9531,338.354,76.768,175.061,1.9675,100729.08
1.3423,0.8809,1.5337,300.671,68.171,137.5,2.2203,100729.28
1.5273,0.1792,0.7686,194.512,-16.524,82.622,1.7192,100730.0
1.1865,0.0879,0.5117,191.22,33.049,58.72,1.2952,100729.7
0.8921,-0.1948,0.1689,144.146,18.171,46.646,0.9286,100729.21
0.6436,-0.5454,-0.2617,111.707,-20.549,61.89,0.8833,100729.37
0.375,-0.292,0.0894,128.415,-0.854,86.829,0.4836,100728.62
0.2632,-0.1519,0.2139,73.537,-16.707,92.622,0.3716,100728.77
0.4971,-0.0513,0.1514,57.561,-33.171,66.098,0.5221,100727.79
1.1724,0.459,1.3994,107.866,-37.927,-14.024,1.8824,100728.14
1.7998,0.2563,1.1196,35.793,-66.341,-59.146,2.1351,100728.4
1.7329,0.2925,0.7339,52.927,-4.207,-48.78,1.9045,100728.35
0.9473,0.3022,0.3638,48.476,81.159,-19.756,1.0588,100728.95
0.4121,0.0522,-0.1973,10.122,74.756,-1.22,0.4599,100729.5
0.3237,-0.1431,-0.6509,19.756,44.207,25.793,0.7409,100728.83
0.3154,-0.0225,-0.2788,87.988,26.89,62.195,0.4216,100728.57
0.7231,0.2246,0.0259,111.646,-39.939,86.829,0.7577,100727.88
1.502,0.4072,0.2207,179.207,-59.634,97.866,1.5718,100728.09
1.7734,0.9492,1.3833,280.671,28.78,87.256,2.4412,100728.96
1.9229,0.8271,1.1714,222.439,-10.244,63.537,2.3987,100729.59
1.8984,0.6753,0.7729,173.537,-38.598,36.585,2.1581,100730.31
1.1724,-0.0137,-0.0898,89.39,14.939,69.573,1.1759,100730.36
0.0679,-0.3789,-0.2866,90.61,105.732,99.146,0.4799,100730.74
-0.2432,-0.2607,0.0186,72.927,47.134,79.878,0.357,100731.29
0.0986,-0.1821,0.0283,3.963,-69.512,41.341,0.209,100730.97
0.7134,-0.0786,-0.0332,-37.378,-142.256,25.854,0.7185,100730.12
1.0918,-0.0039,-0.0933,-17.744,-107.622,36.89,1.0958,100729.38
1.2544,0.2329,0.5938,53.354,-30.427,19.817,1.4072,100729.27
1.5537,0.3311,0.9277,52.805,-14.756,-17.805,1.8396,100729.42
1.7944,0.2559,1.127,49.329,24.207,-54.878,2.1344,100730.05
1.3677,0.374,0.8916,12.866,82.5,-56.707,1.6749,100729.63
0.8159,0.1426,-0.02,-46.037,83.537,-54.756,0.8285,100729.57
0.7861,-0.0557,-0.376,-33.293,43.415,-37.439,0.8732,100729.52
0.5459,-0.0596,-0.4194,5.671,41.89,12.744,0.691,100730.36
0.4126,0.0952,-0.0171,56.159,15.244,45.366,0.4238,100730.0
0.7393,0.1846,0.2632,65.793,-51.707,54.085,0.8061,100730.1
1.1934,0.1108,0.4116,116.037,-53.78,48.598,1.2672,100730.19
1.4634,0.498,1.3979,191.402,12.805,21.829,2.0842,100730.72
1.7261,0.3433,1.2773,105.366,-19.939,-1.707,2.1746,100730.5
1.4526,0.0952,0.5024,28.598,-31.159,7.073,1.54,100729.98
0.7305,-0.2412,-0.2632,1.829,15.854,40.976,0.813,100729.85
0.1445,-0.3496,-0.3218,25.305,47.073,61.037,0.4966,100729.76
0.0952,-0.1948,-0.0742,-9.329,-6.585,56.951,0.2292,100729.92
0.3813,-0.2598,-0.123,-80.244,-53.11,35.793,0.4775,100729.91
0.7515,-0.1577,-0.0762,-94.39,-80.122,35.549,0.7716,100728.9
1.0835,0.1562,0.6099,-35.0,-65.061,6.524,1.2531,100729.39
1.4805,0.0947,0.9731,-24.329,-44.512,-52.195,1.7742,100729.37
1.9424,0.1035,0.9146,-7.317,-21.524,-84.817,2.1494,100729.23
1.5537,0.0874,0.6782,3.049,43.659,-58.841,1.6975,100730.38
0.8618,0.021,0.2471,-14.939,84.573,-28.963,0.8968,100730.33
0.6792,-0.0439,-0.1313,-36.829,45.732,-4.695,0.6932,100729.43
0.3716,-0.1084,-0.3701,-25.732,32.927,40.549,0.5355,100728.98
0.1377,0.147,-0.0781,22.134,23.11,66.829,0.216,100729.11
0.4639,0.1338,-0.0503,28.659,-32.134,47.866,0.4854,100729.1
1.2397,0.1504,0.3784,103.78,-37.805,21.159,1.3049,100728.71
1.6846,0.5464,1.4766,165.854,43.902,-6.768,2.3058,100728.16
1.8232,0.2695,1.2393,71.89,20.671,-27.073,2.221,100728.01
1.6221,-0.0352,0.4414,0.793,-14.939,-14.878,1.6814,100728.52
0.9004,-0.3569,-0.1353,-17.439,23.049,20.122,0.978,100729.02
0.2432,-0.4297,-0.2446,-20.976,17.012,43.963,0.551,100729.16
0.1074,-0.3389,-0.271,-51.646,-31.28,47.134,0.447,100729.87
0.4141,-0.2256,0.0176,-72.317,-54.024,36.463,0.4719,100729.3
0.7456,-0.1318,0.0977,-88.354,-54.695,34.207,0.7634,100729.13
1.1201,0.0532,0.9551,-28.598,-30.183,-9.451,1.473,100728.88
1.4663,0.1797,1.2441,-47.134,-17.439,-65.427,1.9314,100729.3
1.7344,0.2139,0.8721,-58.171,2.988,-100.976,1.953,100729.86
1.3164,0.1094,0.3896,-40.0,57.256,-82.5,1.3772,100730.27
0.6328,-0.0337,-0.1094,-36.28,79.024,-50.488,0.6431,100730.59
0.4565,-0.0903,-0.3154,-27.561,24.939,-20.61,0.5622,100730.45
0.3535,0.0127,-0.1543,-4.024,-0.427,14.024,0.3859,100730.38
0.4897,0.1704,-0.0161,7.988,-46.768,26.951,0.5188,100730.43
1.103,0.1089,0.0308,49.085,-80.488,22.134,1.1088,100730.34
1.6641,0.3691,0.9961,152.5,1.768,21.402,1.9742,100730.48
1.6543,0.3208,1.2559,131.463,59.146,17.012,2.1016,100730.59
1.4766,0.0684,0.7383,66.037,14.207,7.744,1.6523,100730.8
1.083,-0.1118,0.1343,20.366,-1.463,15.671,1.097,100731.55
0.5859,-0.4854,-0.3857,0.549,14.268,40.549,0.853,100730.77
0.2856,-0.4297,-0.1597,7.073,12.683,57.561,0.5401,100730.05
0.4995,-0.1802,0.1597,-112.5,-50.671,46.159,0.5545,100729.86
0.7886,-0.084,0.23,-105.183,-64.268,17.439,0.8257,100728.76
1.2979,0.02,1.062,-39.512,-50.549,-44.939,1.6771,100728.29
1.6318,0.1675,1.1211,-33.902,-15.671,-88.78,1.9869,100728.91
1.6523,0.0317,0.4897,-34.39,10.0,-87.073,1.7237,100729.13
1.0166,-0.1436,-0.0361,-4.39,85.244,-39.512,1.0273,100729.41
0.5449,-0.0171,0.0425,21.707,101.463,-4.207,0.5468,100729.14
0.3179,-0.0352,-0.1016,-16.463,47.5,10.854,0.3355,100728.82
0.4639,0.0728,-0.0068,-30.061,-20.122,10.427,0.4696,100728.96
