ax,ay,az,gx,gy,gz,avm,pressure
0.4854,-0.0972,-0.1968,15.061,18.354,10.0,0.5327,100759.38
0.7129,-0.0781,-0.165,52.988,31.585,10.061,0.7359,100758.91
0.7129,0.0024,-0.1006,52.561,12.927,20.122,0.72,100758.66
0.7075,-0.1294,-0.2988,8.171,3.11,15.61,0.7789,100758.99
0.729,-0.0933,-0.3545,8.598,-17.622,3.171,0.816,100759.34
0.8799,-0.0386,-0.4634,25.671,0.854,-1.159,0.9952,100759.25
1.2769,-0.0283,-0.3838,37.439,18.415,-10.0,1.3336,100759.91
1.5327,-0.0439,-0.3413,23.78,9.695,-8.354,1.5709,100760.65
1.4082,0.0283,-0.4316,6.037,-18.415,-13.598,1.4731,100760.37
1.3276,-0.2861,-0.2285,23.049,0.976,-4.939,1.3772,100760.62
1.3164,0.0396,0.6167,64.512,42.988,14.573,1.4542,100760.34
0.9438,0.0664,0.4507,-17.195,24.573,23.415,1.048,100760.62
0.8491,0.0103,-0.1226,-44.207,-7.744,2.195,0.858,100760.58
0.9741,-0.0112,-0.2178,3.171,3.354,-3.841,0.9982,100760.68
0.8198,-0.103,-0.0815,9.756,26.829,3.841,0.8303,100760.98
0.5981,-0.0889,-0.0273,-6.951,7.378,-4.268,0.6053,100760.49
0.5166,0.0308,-0.0146,-14.39,-6.341,-2.378,0.5177,100760.25
0.5571,0.0352,-0.1704,-39.329,-14.817,0.366,0.5837,100760.05
0.8589,-0.0918,-0.4922,-36.951,-24.634,5.671,0.9942,100760.04
1.02,-0.0142,-0.2646,-10.549,-19.634,14.146,1.0539,100760.39
1.2319,-0.0054,-0.3101,-44.939,-1.341,3.963,1.2704,100760.66
1.772,0.1421,-0.4316,-17.012,-36.098,-27.622,1.8293,100760.12
1.3101,0.0488,0.5317,-33.72,41.037,17.744,1.4147,100760.09
0.8608,-0.3242,0.5669,-52.805,13.902,-3.963,1.0805,100759.7
0.499,-0.0972,-0.0234,11.768,13.72,-1.707,0.5089,100760.5
0.4917,-0.0225,-0.0703,35.915,17.439,6.341,0.4972,100760.51
0.7339,-0.0298,-0.2314,46.28,4.207,11.159,0.7701,100760.62
0.7056,-0.1279,-0.2896,16.89,-8.659,25.671,0.7733,100760.09
0.7495,-0.1465,-0.4932,-9.695,-23.415,16.951,0.9091,100760.07
1.1855,-0.1436,-0.4517,9.695,-4.695,-8.049,1.2768,100760.55
1.793,-0.0654,-0.375,41.768,15.244,-19.451,1.8329,100761.39
1.4702,0.1445,-0.3408,25.732,-40.488,-7.744,1.5161,100762.38
1.4756,-0.3394,-0.4082,-10.976,-13.11,-3.415,1.5682,100762.4
1.5239,-0.1021,0.8687,77.561,48.293,23.049,1.7571,100761.67
0.6245,-0.02,0.4775,-5.732,36.341,54.573,0.7864,100761.75
0.8345,-0.1182,-0.3125,-47.378,-1.951,0.854,0.8989,100761.79
1.1934,-0.0693,-0.2563,-4.756,3.171,-12.195,1.2225,100761.84
0.7065,-0.1304,-0.1328,-9.756,8.902,2.134,0.7306,100761.74
0.4551,-0.0664,0.0444,-27.744,-12.195,-23.171,0.462,100761.05
0.6621,0.1338,-0.1006,-46.524,-14.451,-20.366,0.6829,100760.41
0.6235,0.0361,-0.3091,-51.037,-14.146,-4.939,0.6969,100760.56
0.5454,-0.0576,-0.3911,-33.476,-15.305,0.305,0.6736,100761.03
0.5776,-0.0552,-0.125,-14.024,10.305,14.573,0.5936,100761.75
1.2729,-0.0815,-0.2285,-37.561,34.268,20.854,1.2959,100761.3
1.9771,-0.1519,-0.6738,-43.11,7.744,-28.293,2.0942,100761.21
1.6255,0.2295,-0.4585,8.049,-39.573,-53.415,1.7044,100762.13
1.104,0.2056,-0.1626,34.451,-0.244,-7.561,1.1347,100759.5
0.8589,0.3096,-0.2773,5.305,-22.988,2.256,0.9542,100759.88
0.4028,-0.082,-0.3081,11.28,-15.915,18.963,0.5137,100759.91
0.4253,-0.0894,-0.0728,71.829,6.768,13.537,0.4406,100760.04
0.6631,0.022,0.0723,91.28,9.085,29.756,0.6674,100760.16
0.5859,-0.0898,-0.0684,36.22,-13.598,39.817,0.5967,100759.12
0.6567,-0.1689,-0.4321,-22.012,-45.488,3.72,0.8041,100759.48
1.0205,-0.249,-0.6509,5.976,-17.134,-7.561,1.2358,100760.23
1.6182,-0.1899,-0.5361,84.39,33.78,-38.354,1.7152,100760.79
1.8721,0.3833,-0.1504,55.183,-28.659,-71.829,1.9168,100760.95
1.6777,-0.2065,-0.3877,-24.024,-0.122,12.927,1.7343,100761.06
1.0483,-0.0132,0.8008,55.061,36.829,65.061,1.3193,100760.67
0.7002,0.0718,0.3721,-11.22,17.744,52.378,0.7962,100760.01
1.0986,-0.1567,-0.2896,-12.317,1.829,-4.878,1.1469,100759.88
1.1509,-0.0957,-0.2183,41.829,-5.671,-29.451,1.1753,100759.66
0.5171,-0.1841,-0.0229,10.671,0.488,-16.402,0.5494,100759.01
0.3286,-0.0522,0.0869,-43.354,-17.195,-27.561,0.3439,100759.51
0.5229,-0.0024,-0.1807,-70.61,-14.085,-5.793,0.5533,100759.99
0.7192,0.0923,-0.3618,-33.902,4.207,21.098,0.8104,100760.49
0.8691,0.1016,-0.4146,-2.073,-8.415,20.671,0.9683,100760.13
1.0396,0.0112,-0.2324,-10.305,13.72,14.207,1.0653,100760.84
1.4199,-0.168,-0.417,-26.341,18.171,-9.573,1.4894,100759.99
1.0566,0.0122,-0.1968,39.451,1.22,14.268,1.0749,100760.47
0.9893,0.1021,-0.3047,10.854,-28.902,-13.963,1.0401,100760.36
0.4316,-0.0098,-0.1943,3.598,-45.427,-9.207,0.4735,100760.15
0.376,-0.1538,-0.106,29.329,-29.451,9.329,0.4198,100759.98
0.5776,-0.146,-0.0737,70.305,5.366,16.707,0.6003,100759.99
0.8286,0.001,-0.0913,86.768,20.915,30.61,0.8336,100760.62
1.0356,-0.2144,-0.6392,33.049,-20.427,7.744,1.2357,100760.71
1.0186,-0.2837,-0.686,21.22,-36.28,-20.366,1.2604,100760.78
1.2568,-0.0996,-0.353,40.427,-17.866,-22.866,1.3093,100760.83
1.6714,0.1055,-0.3521,14.39,-20.976,-16.829,1.7113,100760.75
1.5713,-0.353,-0.3169,-14.878,-23.963,-2.073,1.6413,100759.95
1.1519,-0.0903,0.2778,48.293,-10.366,22.195,1.1883,100760.34
0.584,0.2168,0.2817,52.927,9.634,46.402,0.6837,100760.38
0.7236,0.0181,0.0396,10.122,23.72,6.89,0.7249,100760.55
1.1821,-0.2832,-0.3501,-24.634,25.488,-33.78,1.265,100760.05
0.7222,-0.3013,-0.3896,-10.915,19.146,-4.573,0.8741,100760.05
0.2549,-0.064,-0.1099,-15.183,11.951,-14.512,0.2848,100759.66
0.3979,0.1514,0.0156,-48.963,19.39,-33.476,0.4261,100759.87
0.6646,0.0903,-0.311,-57.866,23.659,-9.512,0.7393,100759.77
1.0195,-0.103,-0.6592,-15.305,28.78,18.049,1.2184,100759.33
1.314,-0.0298,-0.4287,8.415,9.268,13.537,1.3825,100760.48
1.3853,-0.1089,-0.3755,-24.268,-1.22,1.707,1.4394,100761.1
1.5576,-0.2061,-0.5244,-19.207,4.512,-8.293,1.6564,100760.7
1.6353,-0.0103,-0.252,-3.902,0.671,-7.317,1.6546,100760.65
1.2847,-0.0024,0.6377,-50.488,6.463,-22.012,1.4342,100760.49
0.9707,-0.1265,0.5122,-17.622,4.817,7.256,1.1048,100760.48
0.9316,-0.0161,0.0586,17.012,12.195,57.5,0.9336,100760.73
1.0117,-0.1782,-0.3086,-19.085,-3.415,10.732,1.0726,100759.94
0.7412,-0.1045,-0.3564,-17.134,-33.902,-17.195,0.8291,100759.48
0.4233,-0.0312,-0.1792,8.659,-32.012,0.427,0.4608,100759.86
0.4507,-0.0161,-0.1167,27.866,7.561,-5.915,0.4658,100760.76
0.6367,0.0195,-0.1313,51.524,20.061,5.61,0.6504,100760.7
0.7153,-0.1357,-0.293,29.756,15.0,16.829,0.7848,100760.18
0.7002,-0.2036,-0.4136,20.427,-8.476,1.524,0.8383,100760.25
1.1768,-0.3335,-0.4204,35.183,12.012,1.098,1.2933,100760.92
1.7896,-0.2065,-0.3296,54.878,27.561,-27.073,1.8313,100761.55
1.6245,0.2573,-0.3169,8.171,-22.866,-58.049,1.675,100761.66
1.5415,-0.437,0.0879,-16.768,37.927,-16.585,1.6047,100761.27
0.8799,0.0894,0.8159,57.988,62.988,47.134,1.2033,100761.68
0.6147,0.2231,0.2441,-16.768,28.354,29.634,0.6981,100761.51
1.3477,-0.0776,-0.2373,-73.232,8.049,-8.049,1.3706,100761.4
0.8774,-0.2466,-0.2671,-41.951,-18.841,27.073,0.9498,100761.91
0.1895,-0.0635,0.0249,-12.5,-17.866,5.0,0.2014,100760.72
0.2979,-0.0264,0.1475,-41.22,-8.537,-55.244,0.3334,100760.31
0.6499,0.0718,-0.1113,-51.646,12.317,-44.634,0.6633,100760.61
1.0137,0.0449,-0.4058,-37.927,12.744,-5.122,1.0928,100761.21
1.3091,0.0386,-0.3892,-17.866,2.378,23.72,1.3662,100761.42
1.4443,-0.1763,-0.3086,-25.671,-4.634,20.671,1.4874,100760.45
1.5293,-0.0654,-0.3716,5.732,-38.902,-29.268,1.5752,100759.74
1.6187,0.1831,-0.1387,28.11,-39.39,-10.488,1.6349,100759.93
1.2373,0.0474,0.6641,-35.244,-17.378,10.183,1.405,100760.07
0.8535,-0.3462,0.3994,-68.902,-34.329,-7.317,1.0039,100760.43
0.8276,-0.0723,-0.1035,22.134,-0.183,22.439,0.8372,100760.07
1.0234,0.2744,-0.1777,59.451,19.146,22.256,1.0744,100758.97
0.8042,-0.0269,-0.25,0.976,-18.72,-5.305,0.8426,100757.98
0.3247,-0.1846,-0.2085,-0.671,-35.122,-8.78,0.4278,100758.62
0.6729,0.0044,-0.1182,73.415,19.695,3.232,0.6832,100759.21
0.835,-0.1411,-0.3354,47.439,17.744,19.695,0.9108,100759.55
1.0874,-0.3296,-0.5024,14.939,5.183,-1.585,1.2424,100760.78
1.4058,-0.2451,-0.2329,0.427,3.11,-17.683,1.4459,100760.21
1.4878,-0.0146,-0.2617,-11.646,11.768,0.976,1.5107,100761.03
1.5166,-0.0103,-0.3604,-32.744,39.756,-17.561,1.5589,100761.03
1.6792,-0.146,0.2261,13.72,54.39,-9.512,1.7006,100760.66
0.5127,0.2344,0.6177,53.598,31.098,77.073,0.8362,100761.14
0.5737,-0.0957,0.0859,-6.402,30.061,40.793,0.588,100760.75
1.4561,-0.1206,-0.1123,6.768,25.976,-15.244,1.4654,100761.8
0.856,-0.0684,-0.0386,8.841,-1.585,22.012,0.8595,100761.35
0.1729,-0.1235,0.0532,-18.963,-30.244,-7.561,0.219,100761.28
0.2842,-0.0835,0.0557,-37.439,-7.134,-34.695,0.3014,100760.72
0.624,0.0674,-0.1489,-28.476,23.049,-21.707,0.6451,100761.18
1.1211,-0.0049,-0.4761,-1.646,18.841,-28.72,1.218,100760.77
1.5391,0.0542,-0.3115,12.927,-3.902,-39.329,1.5712,100760.58
1.2656,-0.0269,-0.2412,-15.427,-5.976,4.878,1.2887,100760.95
1.5674,-0.0684,-0.3481,9.329,-11.341,10.183,1.607,100760.73
1.6953,0.0327,0.2803,21.524,12.805,-10.0,1.7186,100760.32
1.0146,-0.001,0.855,-39.512,-8.293,-42.317,1.3268,100760.62
0.8047,-0.2046,0.3442,-61.585,-32.317,-22.744,0.8988,100760.35
1.1123,-0.188,-0.0991,-31.159,24.207,35.366,1.1324,100760.27
1.1519,0.1685,-0.1738,5.244,7.683,15.427,1.177,100760.45
0.4966,0.0483,-0.1641,-17.744,-52.561,-10.427,0.5252,100760.12
0.0981,-0.145,-0.0942,-9.024,-38.598,4.817,0.1989,100760.36
0.356,-0.1025,-0.0596,21.402,-8.841,25.549,0.3752,100760.66
0.6895,-0.0972,-0.1685,42.195,6.098,48.78,0.7164,100761.73
1.1196,-0.1489,-0.5376,24.878,-17.195,14.512,1.2509,100761.94
1.4482,0.0552,-0.3799,22.805,-38.659,-31.22,1.4983,100762.34
1.5171,-0.1616,-0.3711,26.768,-25.061,-12.988,1.5702,100762.26
1.3027,0.0537,-0.4663,16.89,-48.232,7.134,1.3847,100761.58
1.6885,-0.5884,0.0005,0.61,11.037,-6.037,1.7881,100761.32
1.0146,0.2559,0.9058,68.293,33.659,11.28,1.384,100760.52
0.8203,0.1475,0.1104,-4.573,20.488,15.915,0.8407,100760.05
1.3145,-0.0181,-0.2656,14.756,23.598,8.171,1.3411,100760.05
1.0093,-0.1304,-0.2056,26.707,1.402,32.561,1.0382,100760.31
0.4204,-0.3345,0.0356,0.732,-11.951,17.195,0.5384,100760.48
0.3101,-0.104,0.1025,-36.22,-16.707,-19.146,0.3427,100760.14
0.5117,-0.0444,-0.229,-75.061,1.037,-22.439,0.5624,100759.98
0.751,0.1553,-0.3511,-48.841,1.098,-9.268,0.8434,100759.39
0.7554,0.0747,-0.3945,-42.622,-6.22,20.488,0.8555,100759.69
0.8853,-0.0542,-0.333,-50.61,-0.427,26.463,0.9474,100760.38
1.6162,-0.3125,-0.5229,-40.427,22.012,-15.671,1.7272,100761.16
1.8184,-0.2485,-0.4316,27.439,-16.585,-31.402,1.8853,100761.62
1.3462,0.373,0.4399,4.085,14.634,3.963,1.4646,100761.09
1.1201,-0.1719,0.5205,-95.427,-16.402,-28.963,1.247,100761.2
1.1221,-0.3604,0.0479,-37.256,0.976,-8.963,1.1795,100760.05
1.1597,0.0518,0.0132,31.402,35.915,10.244,1.1609,100760.3
1.1196,0.4321,-0.2266,19.817,3.476,-4.329,1.2213,100759.85
0.7007,-0.0698,-0.3633,-10.061,-32.744,2.622,0.7923,100760.28
0.2349,-0.1274,-0.1655,30.854,-22.927,8.232,0.3143,100759.85
0.4062,0.0659,-0.0498,59.512,-16.159,5.305,0.4146,100760.88
0.5688,0.0625,-0.0454,53.232,-15.427,45.366,0.5741,100760.18
0.71,-0.4185,-0.478,24.573,-39.146,38.232,0.9527,100760.01
0.9146,-0.3169,-0.4868,50.183,-14.451,-2.134,1.0834,100760.62
1.4473,-0.1626,-0.3828,58.72,17.683,-16.463,1.5058,100760.86
1.5908,-0.0034,-0.4146,32.134,-19.39,-40.305,1.644,100760.53
1.6987,-0.2773,-0.1592,-38.354,-13.537,-52.5,1.7286,100760.3
1.4663,0.0537,0.4292,26.829,10.793,9.024,1.5288,100759.62
0.6968,0.2617,0.2666,51.22,14.207,64.329,0.7906,100759.12
1.0366,-0.1255,-0.041,22.134,17.378,15.549,1.045,100759.85
1.2285,-0.2495,-0.2939,-2.195,3.598,-8.902,1.2876,100759.67
0.5498,-0.2314,-0.2622,-7.5,-20.305,16.22,0.6516,100759.16
0.1416,-0.0806,-0.1582,-29.39,-29.268,-0.122,0.2271,100760.12
0.1606,-0.0698,-0.0967,-41.829,4.817,-7.134,0.2001,100760.25
1.2085,0.1074,-0.3711,-26.768,22.683,-17.561,1.2687,100760.25
1.3091,-0.2607,-0.3042,-66.585,18.537,41.707,1.369,100760.2
1.3418,-0.1313,-0.3394,-59.024,-1.768,18.78,1.3903,100760.42
1.6597,0.105,-0.6191,-37.195,-2.317,-30.427,1.7745,100760.33
1.7002,0.1187,0.2822,-14.329,20.0,-31.951,1.7275,100760.75
0.8125,-0.1289,0.5327,-18.354,-6.28,-32.805,0.9801,100760.59
0.7549,-0.2256,0.1699,-16.28,30.122,-4.817,0.806,100759.96
1.2881,-0.2944,-0.1382,-14.268,39.573,-8.78,1.3285,100759.87
1.1099,0.2031,-0.25,9.939,27.622,-10.61,1.1557,100759.8
0.6147,0.0645,-0.2998,-7.805,-5.976,8.598,0.687,100759.14
0.4067,-0.0903,-0.1484,11.22,-2.683,11.402,0.4423,100759.98
0.6045,-0.0225,-0.125,30.671,0.854,20.427,0.6177,100760.51
0.542,-0.0859,-0.1831,45.915,-14.024,39.268,0.5785,100759.54
0.5884,-0.1099,-0.272,37.805,-33.476,8.11,0.6574,100759.58
1.0078,-0.2808,-0.4663,40.915,-26.524,-16.159,1.1454,100759.7
1.6055,-0.2407,-0.3047,64.756,27.561,-11.22,1.6518,100760.42
1.5581,0.1357,-0.3184,29.878,-27.927,-41.707,1.5961,100759.98
1.5991,-0.2935,-0.3037,-45.61,-40.549,-37.927,1.6539,100760.77
1.7251,-0.0942,0.5669,22.805,28.354,43.293,1.8183,100760.73
0.6611,0.1899,0.4761,27.927,13.049,100.671,0.8366,100761.07
0.9058,0.0415,-0.085,-0.122,15.915,0.427,0.9107,100760.95
1.1128,0.0146,-0.1367,17.988,7.073,-28.354,1.1213,100760.85
0.7012,-0.3535,-0.23,-6.22,3.841,22.5,0.8182,100759.82
0.4219,-0.2476,-0.0776,-29.817,-26.829,13.537,0.4953,100759.53
0.2979,0.0674,-0.0605,-50.183,-49.573,-20.244,0.3113,100759.41
0.4697,0.1147,-0.2622,-48.415,-15.366,-21.159,0.5501,100759.82
0.7783,0.062,-0.3994,-20.427,10.671,-11.28,0.877,100759.27
1.3135,0.0264,-0.4717,-17.683,-1.829,2.744,1.3959,100759.6
1.4209,-0.1436,-0.499,-25.732,-13.049,20.366,1.5128,100759.23
1.2861,-0.1851,-0.5405,-13.78,-23.11,2.195,1.4073,100759.7
1.6665,-0.0073,-0.2729,-4.512,-21.768,-30.061,1.6887,100760.43
1.4795,0.1831,0.5151,-41.037,12.622,-15.305,1.5773,100760.35
0.6719,-0.291,0.3623,-62.988,2.927,22.073,0.8169,100760.41
0.7935,-0.2168,-0.144,-1.28,22.256,21.829,0.8351,100759.72
1.3862,0.2344,-0.3262,48.476,42.134,-26.402,1.4432,100759.79
0.8872,0.2646,-0.2417,39.695,-1.951,-11.89,0.9569,100760.98
0.1689,-0.3115,-0.293,15.671,-21.89,32.5,0.4598,100760.16
0.2651,-0.1689,-0.2109,64.695,0.854,9.451,0.3786,100760.63
0.8101,0.1289,-0.1987,80.244,13.415,-5.305,0.844,100760.25
0.8193,-0.1206,-0.2783,40.305,-4.146,15.854,0.8737,100759.62
0.6768,-0.3086,-0.3867,11.707,-32.378,5.488,0.8383,100759.88
1.125,-0.3203,-0.3506,18.293,3.659,-0.061,1.2211,100760.45
1.8311,-0.1089,-0.3091,36.707,23.293,-24.085,1.8601,100760.38
1.7017,-0.0303,-0.3618,12.195,4.451,-39.207,1.74,100760.55
1.9116,-0.1025,0.2158,7.683,24.39,-4.085,1.9265,100760.83
0.7148,-0.0308,0.4727,14.878,7.317,82.378,0.8575,100759.67
1.0991,0.1045,0.001,14.451,23.659,-29.085,1.1041,100759.29
0.8623,-0.2041,-0.313,-5.793,-0.183,-1.463,0.9398,100759.12
0.4922,-0.2305,-0.1978,1.159,-4.024,7.683,0.5783,100758.62
0.4004,0.0444,-0.0112,5.488,-24.085,-4.756,0.403,100758.38
0.3447,0.1343,-0.1606,-7.927,-15.793,-9.634,0.4033,100759.2
0.8125,-0.0845,-0.4165,-9.329,11.585,-14.39,0.9169,100759.31
1.5303,0.0483,-0.4702,-22.073,2.988,-32.866,1.6016,100759.15
1.4502,-0.1221,-0.4893,-32.012,-24.817,-0.488,1.5354,100760.01
1.5029,-0.1162,-0.3311,11.28,-30.427,26.098,1.5433,100760.27
1.5571,-0.0386,-0.1963,4.451,-37.317,4.756,1.5699,100759.73
1.377,-0.1348,0.4937,-35.366,-41.341,-9.207,1.469,100759.09
0.6626,-0.1909,0.4395,-27.439,-55.488,0.0,0.8177,100758.97
0.8872,0.1416,-0.3086,22.988,7.073,5.915,0.95,100758.27
1.3042,0.1001,-0.4087,40.793,16.159,4.634,1.3704,100759.07
0.4189,-0.1084,-0.1528,31.28,-29.329,2.5,0.4589,100759.2
0.0479,-0.2363,-0.2017,29.329,-14.207,5.366,0.3143,100759.05
0.4126,-0.1362,-0.1899,70.122,12.927,-2.256,0.4742,100758.21
0.8408,0.1084,-0.1597,84.573,36.159,-3.293,0.8627,100758.55
0.9824,-0.1538,-0.4761,45.366,5.671,9.39,1.1025,100759.05
0.7617,-0.0605,-0.4341,39.512,-32.683,-7.012,0.8788,100759.93
1.1704,-0.1577,-0.439,31.341,-32.866,-32.744,1.2599,100760.34
1.6646,-0.02,-0.4492,66.098,-2.5,-22.012,1.7242,100760.52
1.2974,-0.0542,-0.5757,71.463,-17.378,4.207,1.4204,100759.67
1.3501,-0.4482,-0.5312,71.463,-29.756,14.146,1.5185,100759.03
1.4302,0.1748,0.4771,106.768,3.11,11.22,1.5177,100759.53
0.8687,0.2407,0.2568,35.488,4.695,10.061,0.9373,100759.92
0.9941,-0.0117,-0.0107,57.622,17.927,1.341,0.9943,100759.09
1.0942,-0.1523,-0.1055,57.5,21.89,-23.72,1.1098,100759.6
0.9082,-0.3296,-0.4048,27.256,14.39,-32.378,1.0475,100759.6
0.314,-0.1191,-0.1353,49.085,-1.646,-17.073,0.362,100759.86
0.3613,0.0952,-0.0581,6.463,-10.671,-31.646,0.3782,100759.2
0.8193,0.0298,-0.395,-14.634,1.28,-13.415,0.9101,100759.57
0.8115,-0.0786,-0.3608,25.061,1.463,33.72,0.8916,100759.61
0.8687,0.0522,-0.3506,10.915,-25.427,9.268,0.9382,100759.59
1.437,-0.0625,-0.4814,-10.244,-8.963,-32.073,1.5168,100758.86
1.918,0.0757,-0.6953,42.805,-8.171,-40.793,2.0415,100758.81
1.5337,0.1138,-0.5181,68.598,-25.122,-29.146,1.6228,100758.66
1.127,0.2144,0.481,48.78,-2.5,-23.049,1.2439,100758.41
0.5762,-0.0864,0.4331,17.927,-20.976,10.061,0.726,100757.88
0.7041,-0.2144,-0.2349,44.634,-8.902,2.134,0.7726,100758.3
1.4526,0.127,-0.3799,91.402,7.012,-46.585,1.5068,100758.28
0.8101,0.1396,-0.209,95.488,-18.902,-14.512,0.8482,100758.88
0.4019,-0.1489,-0.1851,90.488,-12.134,-6.585,0.4668,100758.45
0.4517,-0.1338,-0.2466,119.634,4.329,-19.512,0.5317,100758.87
0.6235,-0.0029,-0.0933,132.439,12.988,-15.549,0.6305,100758.57
0.6953,-0.1421,-0.2471,81.28,-1.402,7.317,0.7515,100758.46
0.8521,-0.3467,-0.5474,47.805,-21.524,-4.878,1.0704,100759.12
1.4668,-0.1851,-0.3682,82.988,7.256,-8.902,1.5236,100759.13
1.6401,-0.0078,-0.2129,42.256,5.427,-14.329,1.6539,100760.23
0.9619,-0.1553,-0.6724,-23.72,-47.195,-46.28,1.1838,100760.71
1.5737,-0.3408,-0.6797,46.402,-27.866,-62.561,1.7478,100760.45
1.4365,0.1787,0.4814,147.378,-2.256,12.317,1.5256,100759.88
0.5894,0.1958,0.3516,65.976,-22.134,23.72,0.7136,100759.7
1.1953,-0.1377,-0.3193,31.707,0.854,-15.854,1.2449,100759.55
0.6431,-0.2861,-0.3281,14.939,-23.354,4.268,0.7766,100758.82
0.2979,-0.2207,-0.0962,11.341,-34.085,-14.146,0.383,100759.41
0.3428,-0.0024,-0.0806,-36.037,-11.463,-16.159,0.3521,100759.09
0.4155,0.0713,-0.4297,-59.512,-11.829,-5.488,0.602,100759.23
0.8569,-0.02,-0.6167,-38.902,14.512,7.073,1.056,100760.2
1.373,-0.1011,-0.585,-41.22,16.768,-0.671,1.4959,100760.44
1.4238,-0.1714,-0.6685,-46.89,11.829,-3.293,1.5822,100760.62
1.5815,-0.1011,-0.792,2.561,16.524,0.488,1.7717,100760.64
1.8604,0.1323,0.0225,20.183,21.22,-11.22,1.8652,100760.4
0.8511,-0.0557,0.4629,-23.659,-20.061,8.841,0.9704,100760.33
0.5127,-0.2856,-0.1309,-39.451,-9.573,34.085,0.6013,100761.5
0.9883,-0.2212,-0.354,-16.951,10.976,2.317,1.0728,100761.42
0.8853,0.0898,-0.2632,15.488,4.573,-5.976,0.9279,100760.6
0.4497,0.0474,-0.3716,14.695,-18.598,11.22,0.5853,100760.73
0.4189,-0.1675,-0.3027,20.976,-28.049,-0.854,0.5433,100759.71
0.3677,-0.0996,-0.2031,52.561,-19.268,-12.134,0.4317,100759.08
0.7964,-0.062,-0.2808,46.159,-0.854,0.061,0.8467,100759.23
0.9136,-0.2603,-0.6929,6.707,-2.134,10.427,1.1758,100759.08
1.2861,-0.3457,-0.6392,32.683,0.732,-13.963,1.4772,100759.34
1.4761,0.0352,-0.2935,55.732,8.72,-11.89,1.5054,100759.42
1.2007,-0.1035,-0.6362,-36.89,-5.366,-6.951,1.3628,100760.22
1.6987,-0.5903,-0.5444,-39.268,-2.561,-40.732,1.879,100759.59
1.0107,0.1689,0.209,72.073,0.244,2.622,1.0459,100758.88
0.8931,-0.168,-0.1895,15.427,53.537,-6.159,0.9283,100760.11
0.9048,-0.1802,-0.3071,-12.5,45.671,-18.415,0.9723,100760.48
0.5425,-0.2212,-0.2993,-11.463,21.28,-14.451,0.6579,100760.15
0.4888,0.0063,-0.0444,-24.573,11.22,-14.756,0.4908,100760.27
0.3408,0.0718,-0.2109,-66.037,-11.768,-13.293,0.4072,100760.24
0.7183,-0.1362,-0.4336,-53.232,-5.366,-5.793,0.85,100760.45
1.3921,-0.1914,-0.5972,-25.366,-4.207,-27.622,1.5268,100760.75
1.5718,0.0693,-0.4053,-25.793,4.268,-25.122,1.6247,100761.34
1.2837,0.0811,-0.7046,-19.146,-1.585,10.305,1.4666,100760.54
1.957,0.0444,-0.1904,-16.524,17.5,12.805,1.9668,100760.45
1.605,-0.0649,0.6201,-28.537,-9.634,-18.841,1.7218,100760.12
0.4585,-0.1851,0.2881,-17.805,-7.866,20.122,0.5722,100760.23
0.564,-0.1777,-0.2329,-9.207,34.207,17.561,0.6355,100760.71
0.9473,0.1567,-0.231,16.707,47.927,-19.39,0.9875,100760.45
0.7461,0.082,-0.3281,-3.11,16.585,-5.183,0.8192,100760.5
0.292,-0.1201,-0.3354,2.988,8.841,9.207,0.4607,100760.91
0.3784,-0.041,-0.063,46.524,36.28,-5.61,0.3858,100760.73
0.7891,-0.0571,-0.1392,55.976,43.598,15.427,0.8033,100761.57
1.1963,-0.2271,-0.3691,40.122,-4.268,5.671,1.2724,100761.46
1.3101,-0.1562,-0.3838,46.829,-24.512,-7.317,1.374,100762.07
1.5195,-0.0908,-0.2725,55.122,12.805,0.244,1.5464,100762.21
1.6074,0.1475,-0.2222,-3.72,-35.183,-27.134,1.6294,100762.31
1.3862,-0.333,-0.0938,-48.476,-24.817,-18.78,1.4287,100761.4
0.8315,0.1543,0.5083,58.659,14.695,18.293,0.9867,100760.85
0.7568,0.2695,0.3657,31.402,37.561,13.415,0.8827,100760.8
1.3682,-0.0547,-0.2236,-33.415,34.207,-4.878,1.3874,100760.77
0.8257,-0.334,-0.3105,-8.537,-7.744,10.366,0.9433,100760.62
0.1875,-0.0688,-0.0547,25.915,-17.988,-2.744,0.2071,100761.12
0.2192,0.1094,0.0229,-33.476,-23.598,-20.488,0.2461,100761.52
0.4668,0.0269,-0.2114,-83.476,-35.122,-12.012,0.5131,100761.32
0.9556,-0.1655,-0.562,-48.049,-15.732,13.232,1.1209,100761.41
1.6182,-0.0708,-0.4458,-1.585,-18.354,20.549,1.6799,100762.09
1.4355,-0.1548,-0.4854,-30.61,-31.341,-1.159,1.5233,100761.6
1.5698,0.0103,-0.5854,-21.159,-2.744,-27.5,1.6755,100762.12
1.7715,0.2891,0.2119,-20.671,36.829,1.28,1.8074,100761.62
0.7109,-0.2817,0.0986,-68.963,14.756,-20.427,0.7711,100760.53
1.0449,-0.0601,-0.1147,-2.988,73.171,19.817,1.0529,100760.56
0.8931,0.2183,-0.166,9.634,70.732,21.463,0.9342,100760.84
0.4375,0.0723,-0.2524,-40.305,8.293,-5.915,0.5103,100761.4
0.3037,-0.0576,-0.2266,-7.683,5.244,-9.39,0.3833,100761.34
0.7075,0.0444,-0.1816,63.841,21.829,4.939,0.7318,100761.66
0.9341,-0.0356,-0.1606,79.817,-3.963,33.537,0.9485,100761.54
1.1914,-0.1592,-0.3804,40.305,-32.134,21.829,1.2607,100761.45
1.1387,-0.1318,-0.2861,26.707,-46.098,8.902,1.1815,100761.98
1.5244,-0.083,-0.1787,29.085,-12.988,5.61,1.5371,100761.77
1.7153,-0.0718,-0.2554,-1.707,-27.256,-16.341,1.7357,100761.97
1.4409,-0.1313,0.1738,11.098,2.805,-18.476,1.4573,100761.88
0.7559,0.3311,0.4971,48.415,14.085,36.159,0.9633,100761.19
0.8965,0.1094,0.082,19.39,17.744,19.939,0.9068,100760.44
1.2734,0.0117,-0.0391,32.012,22.5,9.146,1.2741,100760.59
0.8101,-0.3921,-0.1694,7.439,-7.378,35.427,0.9158,100760.36
0.1548,-0.2876,-0.1382,-6.951,-27.256,8.049,0.3546,100760.93
0.1016,0.0786,-0.0537,-27.256,-5.305,-36.037,0.1392,100760.84
0.3853,0.1528,-0.1118,-56.768,-6.341,-18.354,0.4293,100761.18
0.9438,-0.0933,-0.4434,-42.927,-6.524,6.89,1.047,100761.53
1.4302,-0.0171,-0.459,-24.085,20.793,-7.744,1.5021,100761.54
1.4609,-0.0996,-0.208,-0.366,8.78,-0.854,1.479,100761.57
1.4829,-0.1372,-0.3794,4.085,-18.049,4.024,1.5368,100762.35
1.7368,0.0713,0.0059,-29.695,-7.378,-3.415,1.7383,100761.07
1.2671,0.0586,0.6885,-59.512,-3.72,-33.476,1.4432,100761.7
0.9033,-0.0962,0.4287,-61.646,-11.646,-20.915,1.0045,100762.44
1.3257,0.0127,-0.2817,-37.988,16.89,8.415,1.3554,100761.88
1.0444,0.332,-0.3594,22.622,-1.402,-3.354,1.1534,100761.81
0.5571,-0.1777,-0.2339,11.037,-16.159,17.134,0.6298,100761.4
0.313,-0.2749,-0.1626,27.012,3.963,17.317,0.4472,100760.98
0.3906,0.1191,-0.1006,50.854,-8.537,10.549,0.4206,100760.77
0.3662,0.0005,-0.2148,40.427,-25.671,36.646,0.4246,100760.76
0.6729,-0.0356,-0.3145,24.817,-13.902,25.244,0.7436,100760.5
0.8926,-0.1577,-0.3232,33.232,3.78,8.598,0.9623,100761.03
1.6343,-0.2754,-0.2241,84.939,38.354,17.195,1.6724,100761.21
1.665,-0.0664,-0.5015,53.049,-16.037,-12.927,1.7402,100761.8
1.6611,-0.1636,-0.2812,-40.549,-18.232,-54.756,1.6927,100762.27
1.8555,-0.1138,0.3765,-4.268,30.671,23.354,1.8967,100762.49
0.6831,0.0078,0.3799,16.89,-24.573,74.939,0.7817,100761.41
0.7939,0.1934,0.1289,27.5,-4.817,-18.963,0.8273,100761.34
1.1538,0.1201,0.0542,38.171,5.0,-13.049,1.1613,100761.67
0.9287,-0.416,-0.3066,-16.951,-9.085,14.634,1.0628,100760.8
0.3286,-0.3184,-0.2114,-16.402,-18.598,-0.183,0.504,100761.02
0.1992,0.061,0.0078,-32.5,-6.098,-25.915,0.2085,100760.57
0.3901,-0.0488,-0.2217,-62.134,21.22,-16.707,0.4514,100761.23
0.8594,0.0,-0.2725,-29.573,27.805,-9.695,0.9015,100761.84
1.1226,0.0967,-0.3291,-22.927,4.024,2.195,1.1738,100761.67
1.459,-0.1382,-0.4058,-58.78,6.159,22.866,1.5206,100762.77
1.7324,-0.3486,-0.7104,-38.171,-8.72,6.707,1.9046,100762.74
1.2896,0.1191,-0.0063,22.012,-29.817,-14.085,1.2951,100762.61
1.2402,0.2988,0.5635,-39.634,12.683,-19.756,1.3946,100762.14
1.0195,-0.3882,0.292,-72.317,-22.195,-26.463,1.1293,100762.76
0.999,-0.1543,-0.0293,8.293,24.207,18.171,1.0113,100762.59
1.2031,0.0962,-0.2173,9.512,22.744,-2.439,1.2264,100762.74
0.7642,0.2139,-0.2979,-11.829,-30.976,-27.622,0.8476,100761.87
0.1826,-0.0234,-0.2344,11.22,-26.707,8.537,0.298,100762.3
0.4604,-0.041,-0.1309,59.024,8.476,30.549,0.4804,100761.77
0.4272,-0.0444,-0.1074,62.927,-14.573,40.732,0.4428,100761.51
0.6562,-0.2251,-0.3838,16.402,-37.317,31.28,0.7929,100762.53
1.1177,-0.2749,-0.4937,-3.11,-63.963,-13.171,1.2524,100763.79
1.3872,-0.1538,-0.3984,14.451,-16.707,-29.512,1.4515,100763.38
1.5151,-0.0596,-0.4946,37.378,19.451,-19.573,1.5949,100763.7
1.5215,0.002,-0.8198,42.866,-22.378,-35.61,1.7283,100762.94
1.9043,-0.2236,-0.0454,62.622,12.317,-22.561,1.9179,100763.11
0.9932,-0.1582,-0.3013,22.134,49.634,-9.329,1.0498,100762.98
1.1704,-0.1587,-0.3047,55.244,42.805,2.683,1.2198,100761.53
0.543,-0.2314,-0.21,-25.915,1.402,12.683,0.6265,100762.44
0.1421,-0.1211,-0.0264,-76.89,-18.415,-22.744,0.1885,100762.61
0.2793,0.0894,-0.1353,-61.951,-6.037,-40.671,0.3229,100763.12
0.8608,-0.0259,-0.4604,-31.22,13.476,-27.561,0.9766,100762.26
1.0918,0.0728,-0.3535,-10.549,-11.341,2.195,1.1499,100762.12
1.1855,-0.0576,-0.3965,-47.073,-25.427,31.341,1.2514,100762.38
1.3125,-0.3071,-0.4204,-37.256,-8.049,34.451,1.412,100762.43
1.5337,-0.1172,-0.5581,10.366,-9.573,-16.463,1.6363,100763.23
1.7871,0.3799,-0.0337,-19.939,14.512,-33.963,1.8273,100762.98
1.2354,-0.1626,0.3911,-69.39,9.756,-16.768,1.3059,100762.27
0.7095,-0.0801,0.2739,-14.695,2.866,-11.402,0.7647,100762.37
1.0635,-0.0483,-0.1128,-14.024,-5.488,-4.207,1.0705,100763.55
1.1069,0.0596,-0.4102,14.512,0.366,-6.159,1.182,100764.07
0.563,0.1133,-0.2456,39.451,4.085,14.329,0.6246,100763.23
0.2822,-0.0889,-0.1431,28.537,-11.89,5.0,0.3287,100762.2
0.4482,-0.0615,-0.208,36.585,-39.634,-6.037,0.498,100761.59
0.6382,-0.0786,-0.23,48.354,-24.451,22.5,0.6829,100762.49
0.5479,-0.1519,-0.249,41.707,-2.744,42.988,0.6207,100763.14
0.9194,-0.2954,-0.5063,22.134,-0.488,3.659,1.0904,100763.01
1.5962,-0.2319,-0.6167,61.037,19.756,-27.134,1.7268,100763.55
1.5732,0.1631,-0.5488,64.39,-6.28,-23.415,1.6742,100763.45
1.6851,-0.0015,0.3662,97.561,5.549,15.61,1.7244,100763.42
0.7266,0.4897,0.6333,51.768,-1.463,62.988,1.0811,100762.73
0.8804,-0.2148,-0.0601,-41.89,16.22,32.683,0.9082,100762.6
1.1367,-0.3047,-0.3105,20.244,13.11,7.378,1.2171,100762.62
0.6934,-0.2798,-0.3584,20.671,-12.134,4.634,0.8291,100762.28
0.3467,-0.186,-0.1929,-25.122,-27.744,-31.524,0.4382,100762.86
0.3486,0.0005,-0.0859,-66.22,-28.171,-39.634,0.3591,100762.69
0.4639,-0.0181,-0.269,-66.768,-3.659,-6.524,0.5365,100763.67
0.6157,-0.0449,-0.4521,-25.427,15.488,9.329,0.7652,100764.04
1.0137,-0.0859,-0.3677,-17.378,16.707,9.268,1.0817,100763.7
1.3809,-0.2642,-0.4741,-44.695,25.122,15.549,1.4837,100763.94
1.5659,-0.27,-0.8188,-34.573,-4.939,-20.549,1.7876,100764.0
1.374,0.2168,-0.4106,-8.78,-19.39,-46.22,1.4504,100763.43
1.5723,0.2207,0.4033,-66.585,17.378,-33.232,1.6381,100762.99
1.0264,-0.4072,0.3701,-61.89,-2.744,-31.585,1.1646,100763.06
1.1807,-0.0171,-0.0054,0.549,18.963,-1.707,1.1808,100763.32
1.1191,0.0894,-0.3843,8.354,23.415,8.415,1.1866,100763.28
0.6592,0.2534,-0.2861,32.561,15.854,8.78,0.762,100763.01
0.3843,-0.0366,-0.1631,12.073,-12.256,18.78,0.4191,100763.17
0.2666,-0.0952,-0.1929,25.305,-14.451,21.341,0.3426,100763.19
0.3975,-0.0161,-0.2124,37.927,6.341,30.305,0.4509,100763.05
0.5601,-0.0845,-0.3179,36.829,-2.195,22.195,0.6495,100762.84
0.7671,-0.313,-0.5332,32.744,-11.341,-2.927,0.9852,100762.55
1.4092,-0.1631,-0.5122,62.744,10.732,-23.598,1.5082,100762.08
1.7563,-0.3477,-0.2637,9.024,-19.268,-8.72,1.8097,100762.16
1.1714,0.2095,0.5972,85.61,41.585,19.329,1.3314,100761.42
0.6255,0.2822,0.1738,8.902,40.244,33.78,0.7079,100760.98
1.0615,-0.0454,-0.0396,-2.866,6.951,3.171,1.0632,100762.02
1.1118,-0.0942,-0.1704,11.037,-13.537,4.573,1.1287,100762.17
0.7139,-0.3057,-0.3369,-37.439,-15.061,19.878,0.8465,100762.3
0.1997,-0.2529,-0.0918,-54.634,-15.305,2.012,0.3351,100762.88
0.2559,0.0371,-0.1387,-62.195,-10.61,-30.366,0.2934,100763.21
0.6475,0.0913,-0.3682,-42.927,17.866,-20.976,0.7504,100763.57
0.8608,0.0156,-0.3154,3.598,31.22,3.841,0.9169,100764.23
1.2451,-0.0342,-0.2476,-3.232,20.183,17.012,1.2699,100763.46
1.6987,-0.2554,-0.3818,-31.768,26.037,18.415,1.7597,100763.49
1.5908,-0.1602,-0.6567,-17.012,-30.732,-22.317,1.7285,100763.91
1.3325,0.2979,0.1133,-11.463,-1.098,-24.756,1.3701,100763.36
1.2729,-0.0386,0.5181,-93.354,0.976,-17.378,1.3749,100763.07
0.7456,-0.4258,0.0513,-62.744,-28.72,-5.366,0.8601,100763.21
1.022,0.0718,-0.0889,12.134,40.366,18.963,1.0283,100763.58
1.085,0.0781,-0.3003,-16.768,9.512,6.341,1.1285,100763.37
0.5571,0.0796,-0.2183,-4.573,-35.305,-4.634,0.6036,100762.59
0.2842,-0.0122,-0.1514,18.537,-14.634,21.524,0.3222,100763.0
0.3398,-0.0742,-0.1191,34.39,-0.061,27.256,0.3677,100762.44
0.5747,-0.1362,-0.3052,39.207,6.707,18.963,0.6648,100760.89
0.9141,-0.2998,-0.4468,56.768,8.537,4.817,1.0607,100761.34
1.1738,-0.146,-0.4307,58.598,-8.598,-18.293,1.2588,100760.7
1.5322,-0.04,-0.2725,44.573,11.28,-27.622,1.5568,100761.58
1.6528,-0.0225,-0.4565,14.39,-23.415,-11.768,1.7149,100761.61
1.7705,-0.4048,-0.043,-25.366,10.61,-0.976,1.8167,100762.51
1.189,0.1133,0.4819,17.012,18.476,39.512,1.2879,100761.95
0.5054,0.2471,0.2158,6.707,13.598,47.805,0.6025,100762.16
1.1499,-0.0181,-0.0059,10.915,36.707,-12.561,1.1501,100761.79
1.2651,-0.0981,-0.2231,22.195,5.671,-9.878,1.2884,100761.16
0.6221,-0.2959,-0.249,-7.927,-17.317,9.756,0.7325,100761.91
0.2915,-0.1313,-0.0942,-27.988,-14.146,-23.415,0.3333,100762.98
0.3501,0.0503,-0.1353,-27.744,-2.195,-26.585,0.3787,100762.81
0.562,0.0566,-0.2661,-22.866,-6.098,-5.305,0.6244,100763.17
0.9199,-0.106,-0.376,-12.195,-13.11,0.976,0.9994,100762.93
1.2651,-0.0591,-0.3447,-14.146,-15.305,7.073,1.3126,100763.26
1.7461,-0.4429,-0.54,-34.329,5.122,12.622,1.8806,100763.76
1.4546,-0.0073,-0.2393,5.427,-17.622,-32.5,1.4742,100763.73
1.6519,0.4082,0.3076,-37.256,6.463,-53.537,1.7291,100762.62
0.8403,0.0093,0.3164,-58.171,-21.402,-32.317,0.898,100762.03
0.6812,-0.1021,0.0288,-16.159,23.293,15.61,0.6894,100762.81
1.1455,0.1113,-0.2227,5.915,42.683,35.488,1.1722,100762.18
0.8164,0.0576,-0.3213,-5.488,3.78,16.28,0.8792,100762.93
0.3906,-0.0747,-0.2432,-12.927,-14.268,0.244,0.4662,100762.64
0.3652,-0.043,-0.1914,14.329,-9.878,12.927,0.4146,100762.41
0.5239,-0.0962,-0.2261,45.732,-10.732,25.793,0.5787,100762.62
0.6567,-0.2227,-0.2754,58.963,-14.512,27.317,0.7461,100762.76
0.8115,-0.1016,-0.4038,41.037,-10.122,-5.915,0.9121,100762.64
1.5205,-0.1392,-0.459,19.756,11.28,-51.646,1.5944,100762.93
1.7822,0.2827,-0.5122,47.134,-15.0,-48.415,1.8758,100763.25
1.7261,-0.1318,-0.4233,-3.902,-22.256,-3.232,1.7821,100764.23
1.814,-0.3984,0.4399,6.646,33.476,18.598,1.9086,100764.48
0.6982,0.3154,0.4741,15.061,4.39,44.878,0.901,100764.31
0.564,0.2266,-0.0024,-1.037,4.39,25.366,0.6078,100763.8
1.1353,0.0063,-0.1294,23.598,27.378,1.829,1.1426,100763.29
1.1011,-0.1055,-0.2837,4.451,24.207,22.866,1.1419,100762.17
0.4546,-0.3262,-0.0962,-21.463,-18.476,5.976,0.5677,100761.45
0.3315,-0.0312,0.0596,-32.805,-22.805,-36.524,0.3383,100762.03
0.4824,0.0771,-0.2119,-48.11,-13.171,-16.463,0.5325,100762.95
0.7729,-0.0298,-0.356,-26.829,-4.634,9.878,0.8515,100762.68
1.0679,0.0059,-0.3789,-3.232,-9.939,5.793,1.1331,100763.44
1.2715,-0.0444,-0.4121,-25.732,-13.293,2.256,1.3373,100763.03
1.6113,-0.1387,-0.5981,-29.085,-12.805,-5.366,1.7244,100762.84
1.5791,0.103,-0.3115,-0.61,-36.646,-12.378,1.6128,100762.59
1.4639,0.1431,0.3779,-53.963,5.183,-12.622,1.5186,100762.15
0.8145,-0.2715,0.3975,-79.329,16.524,-0.854,0.9461,100762.66
0.7993,-0.0386,-0.0791,-19.695,20.732,16.585,0.8041,100762.45
0.854,0.1704,-0.291,34.024,15.671,27.5,0.9182,100762.05
0.5811,0.1479,-0.3027,24.329,6.646,22.683,0.6717,100762.59
0.2686,-0.1611,-0.2256,-10.854,0.061,32.927,0.386,100762.75
0.3691,-0.0928,-0.1714,15.671,8.78,19.329,0.4174,100763.27
0.8228,-0.1343,-0.3247,53.598,32.256,-2.988,0.8946,100762.9
1.1338,-0.2563,-0.2549,84.573,2.5,-12.805,1.19,100763.36
1.2656,-0.002,-0.356,63.354,-19.573,2.744,1.3147,100762.71
1.1802,-0.2603,-0.2681,-3.354,-6.524,22.744,1.2379,100763.21
1.3521,-0.3755,-0.415,-19.207,-5.915,3.293,1.4633,100763.48
1.6841,-0.1934,-0.4731,12.195,-22.988,-17.256,1.7599,100763.43
1.6655,0.1304,0.3262,34.207,5.61,-6.402,1.7022,100763.51
0.6904,0.1743,0.4404,0.0,6.098,51.707,0.8373,100763.34
0.6978,-0.082,0.103,7.622,7.134,25.854,0.7101,100762.73
1.0947,-0.0381,-0.1138,42.134,8.963,-31.768,1.1013,100762.63
1.1167,-0.2256,-0.3232,26.707,14.146,-16.951,1.1842,100763.17
0.5459,-0.2407,-0.1538,6.951,0.549,2.439,0.6161,100762.34
0.3594,-0.0059,-0.0522,-29.207,-11.098,-15.976,0.3632,100762.7
0.4746,-0.0303,-0.166,-49.573,-16.646,-5.732,0.5037,100762.75
0.5864,-0.0977,-0.2939,-24.756,-25.671,2.561,0.6632,100763.26
0.9956,-0.0698,-0.3486,-14.695,-15.183,0.854,1.0572,100763.76
1.4019,-0.1919,-0.4292,-36.463,5.793,7.5,1.4786,100763.88
1.6729,-0.2627,-0.8413,-31.22,0.122,-9.329,1.8908,100762.87
1.4751,0.2002,-0.1421,13.293,-10.671,-22.805,1.4954,100762.12
1.2529,0.1401,0.4331,-29.39,30.0,-22.5,1.3331,100761.78
0.6904,-0.3247,0.2725,-55.183,6.89,-19.39,0.8102,100762.41
1.1313,-0.1665,-0.1055,-33.963,17.866,12.622,1.1484,100762.38
1.3179,-0.1094,-0.2979,-29.573,13.537,-0.488,1.3555,100762.61
0.8726,0.1406,-0.1875,-18.476,-10.183,-12.317,0.9035,100762.63
0.4102,-0.0063,-0.1304,-19.939,-10.366,15.0,0.4304,100762.55
0.3359,-0.02,-0.1616,12.744,-6.89,22.378,0.3733,100762.61
0.3906,-0.1172,-0.3423,44.451,-18.841,26.22,0.5324,100763.28
0.6938,-0.2129,-0.3252,75.0,-11.646,17.927,0.7953,100763.05
0.9688,-0.145,-0.3213,72.073,-6.89,-2.5,1.0309,100763.75
1.332,-0.2749,-0.3467,45.854,10.976,-10.0,1.4036,100764.63
1.6826,-0.146,-0.5195,30.183,-4.695,-22.012,1.767,100764.31
1.8232,-0.1685,-0.2261,-5.366,-11.524,-29.695,1.8449,100763.83
1.5337,-0.1104,0.499,-13.659,20.305,-17.073,1.6166,100763.34
0.6519,0.2476,0.228,21.951,-13.841,16.89,0.7336,100762.73
0.6816,0.127,-0.1533,45.854,20.732,24.573,0.7101,100763.01
1.0859,-0.1431,-0.1079,25.793,35.854,3.476,1.1006,100763.33
0.8345,-0.2407,-0.2744,-1.22,-7.744,4.573,0.9108,100763.11
0.3604,-0.1475,-0.0522,-13.963,-21.829,2.927,0.3928,100763.16
0.4097,-0.0103,-0.0459,-48.537,-23.841,-10.122,0.4124,100763.08
0.5171,-0.0586,-0.2378,-52.256,-20.366,-2.622,0.5722,100763.5
0.8101,0.0781,-0.3213,-19.695,-10.122,6.159,0.8749,100763.81
1.3755,-0.1841,-0.5322,-26.768,11.402,1.585,1.4863,100764.18
1.5454,-0.3916,-0.6738,-16.524,-9.146,-6.524,1.7308,100763.72
1.772,0.2227,-0.1719,-1.22,-1.829,-9.207,1.7942,100763.49
1.3535,0.2632,0.5317,-74.39,13.78,-8.902,1.4778,100763.7
0.7925,-0.2549,0.1235,-69.024,-18.293,3.293,0.8416,100763.0
1.1421,-0.1807,-0.2354,31.646,8.72,35.061,1.18,100763.33
1.1187,0.04,-0.3071,49.695,17.439,13.293,1.1607,100763.57
0.7192,-0.0747,-0.3433,16.28,2.744,-20.549,0.8004,100763.88
0.4414,-0.0791,-0.1821,27.683,-1.524,-2.561,0.484,100763.61
0.2778,0.0054,-0.0913,40.976,5.793,13.354,0.2925,100762.81
0.3525,-0.1128,-0.126,38.598,-34.085,22.439,0.391,100763.45
0.583,-0.1934,-0.3735,48.293,-29.512,19.146,0.7189,100763.8
1.0278,-0.2686,-0.4053,59.695,8.476,2.5,1.137,100764.05
1.5005,-0.1978,-0.4053,47.439,12.805,-4.268,1.5668,100763.88
1.5596,-0.1816,-0.7144,22.256,-18.963,-32.683,1.725,100764.6
1.4658,-0.1514,-0.3726,4.024,-19.085,-40.793,1.52,100764.16
1.5508,-0.2109,0.5039,28.78,16.524,4.756,1.6442,100763.95
0.7817,0.3008,0.5098,51.037,-3.963,36.585,0.9805,100763.92
0.707,0.0801,-0.1133,7.683,8.659,15.122,0.7205,100763.89
1.3945,-0.2207,-0.3662,-18.72,13.171,-33.841,1.4586,100763.76
0.978,-0.1748,-0.4888,-2.134,-8.293,-3.415,1.1072,100764.14
0.4814,-0.1328,-0.1553,-5.244,-13.598,-3.171,0.523,100763.83
0.3433,-0.0889,-0.0396,-51.28,-19.024,-20.976,0.3568,100763.84
0.4771,-0.1123,-0.2344,-64.39,-22.805,-0.915,0.5433,100763.1
0.6577,-0.0806,-0.3843,-44.268,-15.183,12.988,0.766,100762.55
0.8994,-0.0854,-0.3291,-31.951,-1.646,3.293,0.9615,100763.48
1.6162,-0.061,-0.5425,-29.024,19.756,-3.537,1.7059,100763.58
1.8164,-0.002,-0.7993,-9.634,-3.963,-1.341,1.9845,100762.66
1.8032,0.1099,-0.021,2.622,0.488,-8.537,1.8067,100763.94
0.937,0.123,0.5454,-36.768,-39.573,-20.915,1.0911,100763.31
0.4443,-0.2617,-0.0186,-81.951,-36.28,4.878,0.516,100762.7
0.8364,-0.2651,-0.4214,-26.829,25.732,12.622,0.9734,100761.63
0.9697,0.1304,-0.3379,45.854,54.695,-0.366,1.0352,100762.18
0.7002,0.0503,-0.291,13.049,0.122,12.927,0.7599,100762.47
0.3208,-0.1587,-0.1548,-19.024,-27.744,27.012,0.3899,100761.83
0.3721,-0.146,-0.2173,-0.366,-19.878,25.793,0.4549,100762.83
0.8838,-0.2993,-0.5415,44.695,-2.195,2.744,1.0788,100763.48
1.1606,-0.1313,-0.5439,40.488,-1.951,-15.305,1.2885,100764.07
1.3223,-0.0444,-0.4072,26.707,19.878,-6.037,1.3843,100763.65
1.2896,-0.2373,-0.6704,15.61,6.646,11.646,1.4727,100764.21
1.7808,-0.458,-0.4209,14.512,7.561,-2.561,1.8863,100763.64
1.4438,-0.0815,0.2485,11.585,31.707,11.463,1.4673,100763.95
0.9351,-0.0078,0.1475,-10.915,7.622,35.976,0.9466,100763.31
1.0068,0.0928,0.0571,13.78,-10.061,9.146,1.0127,100763.59
1.0918,-0.0693,-0.2783,15.488,-2.744,-5.793,1.1288,100763.05
1.0371,-0.2471,-0.4082,19.573,19.39,9.512,1.1416,100762.89
0.5469,-0.168,-0.1353,-0.488,8.963,-0.488,0.5879,100762.41
0.2524,-0.1763,-0.1616,-36.463,-14.146,-18.659,0.3477,100762.79
0.334,-0.0767,-0.1187,-47.012,-27.561,-15.183,0.3626,100763.67
0.5015,-0.1475,-0.2075,-47.622,-33.232,9.939,0.5624,100763.98
0.9336,-0.042,-0.2559,-45.549,1.159,32.439,0.9689,100762.97
1.4565,-0.3994,-0.7036,-74.756,5.122,-4.695,1.6662,100762.96
1.6641,0.0674,-0.9702,-10.305,-17.256,-23.415,1.9274,100763.44
1.7534,0.2734,-0.1597,0.61,-6.463,4.085,1.7818,100763.8
1.2173,-0.2969,0.4995,-68.171,7.256,-21.524,1.3489,100762.85
0.6392,-0.3389,0.1377,-65.488,-1.585,-31.524,0.7364,100763.74
1.0796,-0.2178,-0.4038,-14.512,36.524,-4.146,1.173,100763.91
1.0312,0.0859,-0.3296,30.244,46.463,10.854,1.086,100763.66
0.4805,0.126,-0.2505,15.305,5.854,27.744,0.5563,100763.82
0.2354,-0.0645,-0.2222,-15.61,-29.085,18.232,0.33,100762.98
0.2651,-0.1855,-0.2437,9.939,-12.378,-2.317,0.4051,100763.31
0.5732,-0.1621,-0.2295,65.183,7.134,1.829,0.6384,100763.34
0.9404,-0.2812,-0.4927,77.073,-6.951,9.024,1.0983,100763.84
1.4624,-0.2061,-0.4731,66.098,4.939,-0.732,1.5508,100764.34
1.6162,-0.0928,-0.5059,24.024,-8.78,-18.415,1.6961,100764.47
1.7095,-0.1592,-0.6177,-3.476,-25.915,-29.695,1.8246,100763.96
1.6777,-0.2666,0.1128,-3.659,37.805,-21.951,1.7025,100763.83
0.936,0.0283,0.2686,-8.659,-19.085,-13.78,0.9742,100763.98
0.5078,0.1353,-0.0181,2.866,-35.854,29.39,0.5258,100764.09
0.6636,-0.0352,-0.0146,8.11,43.232,39.146,0.6647,100764.02
0.9785,-0.1821,-0.3774,3.232,42.134,-4.695,1.0645,100763.38
0.6938,-0.0156,-0.2881,13.902,-12.256,-20.976,0.7514,100763.52
0.3262,-0.0864,-0.1201,-21.159,-30.0,-25.0,0.3582,100763.98
0.3086,-0.062,-0.1553,-30.061,-31.524,-20.122,0.351,100764.36
0.6333,-0.0264,-0.4546,-14.878,-12.378,3.171,0.78,100765.0
1.2012,-0.1738,-0.4863,-10.793,17.744,21.402,1.3075,100764.97
1.5908,-0.3315,-0.6245,-51.707,-7.622,-8.902,1.7409,100765.32
1.5298,-0.0278,-0.7373,-25.976,-17.927,-13.78,1.6984,100764.98
1.5938,0.3696,-0.2012,5.427,-11.037,14.512,1.6484,100764.09
1.4253,0.144,0.3135,-97.012,-19.146,-20.854,1.4665,100763.7
0.623,-0.2583,-0.0239,-97.256,-56.646,-21.341,0.6749,100763.74
0.7427,-0.1685,-0.2378,17.317,6.768,44.39,0.7978,100763.78
1.0083,-0.1401,-0.2725,52.927,54.451,43.72,1.0538,100764.07
1.0137,0.0122,-0.3853,38.293,43.171,-6.098,1.0845,100764.77
0.7378,-0.0059,-0.2871,-6.524,-0.61,-6.707,0.7917,100764.8
0.3643,-0.1123,-0.2051,-15.244,-17.378,9.39,0.4328,100764.7
0.4741,-0.0923,-0.3057,10.366,-13.049,15.915,0.5716,100765.38
0.3818,-0.0903,-0.3662,59.817,-23.72,19.695,0.5367,100764.53
0.8408,-0.0532,-0.4229,76.951,-10.244,16.28,0.9427,100765.12
1.2793,-0.2896,-0.6206,69.695,-6.768,-5.61,1.4511,100765.33
1.5806,-0.0601,-0.7539,67.683,-17.317,-45.854,1.7522,100765.35
1.6265,-0.2446,-0.4722,-14.634,-22.378,-8.537,1.7112,100765.36
1.4873,-0.4731,0.1694,-11.89,19.817,13.537,1.5699,100765.13
1.0254,0.2378,0.1187,5.305,-5.061,6.098,1.0593,100765.7
1.166,0.2124,-0.0234,38.659,6.098,17.073,1.1854,100765.5
0.9448,0.0796,-0.0659,37.5,29.695,26.524,0.9505,100764.36
0.6333,-0.4551,-0.3877,-27.012,37.134,16.463,0.8709,100764.76
0.5142,-0.4102,-0.3232,-23.598,25.671,-21.707,0.7329,100764.55
0.2441,-0.1064,-0.1294,-19.939,26.037,-38.354,0.2961,100764.16
0.3203,0.0806,-0.2383,-39.756,-6.524,-40.305,0.4073,100764.84
0.6201,0.2017,-0.4268,-33.293,-33.293,-15.488,0.7793,100764.87
0.981,-0.0493,-0.5322,-30.488,-25.976,28.354,1.1171,100764.76
1.4146,-0.2896,-0.4736,-28.171,6.402,29.024,1.5196,100764.55
1.6646,-0.2129,-0.4717,-15.122,18.415,6.341,1.7431,100764.29
1.4507,-0.0112,-0.6982,-4.085,-24.878,-20.976,1.61,100763.84
1.7114,0.4028,0.0142,-39.207,17.622,-26.646,1.7583,100763.13
1.02,-0.1558,0.23,-104.024,-7.378,-35.0,1.0572,100763.22
0.6934,-0.2949,-0.1411,-31.646,-30.244,-7.073,0.7666,100763.41
0.7412,-0.0122,-0.0581,42.622,40.427,21.646,0.7436,100763.55
0.9004,0.0508,-0.2275,12.988,44.207,2.805,0.9301,100763.17
0.7539,0.0605,-0.3496,3.415,9.451,5.915,0.8332,100763.62
0.2451,-0.0073,-0.1758,16.341,-28.963,27.683,0.3017,100762.7
0.2241,-0.1436,-0.0771,26.22,-21.22,21.037,0.2771,100764.0
1.1631,-0.5654,-0.6846,46.159,32.622,13.902,1.4633,100763.27
1.3052,0.0674,-0.6602,74.512,7.317,-18.72,1.4642,100764.06
1.4072,0.0566,-0.5664,30.671,-26.89,0.183,1.518,100765.02
1.4619,-0.3384,-0.6147,8.476,-6.585,15.305,1.6216,100765.13
1.4448,-0.3364,-0.0918,24.817,-6.159,1.585,1.4863,100765.33
1.1904,0.106,0.3838,27.927,-4.024,-22.988,1.2552,100764.25
1.0288,0.2314,0.1299,8.232,4.939,-7.134,1.0625,100763.58
1.0356,0.1187,0.0425,23.171,24.634,24.512,1.0433,100763.44
0.8291,-0.2451,-0.1138,-2.378,26.585,35.732,0.872,100763.7
0.481,-0.5586,-0.2695,-32.683,4.634,6.22,0.7849,100764.15
0.3447,-0.1431,-0.1685,-26.646,-22.683,-40.366,0.4095,100763.74
0.4004,0.188,-0.2554,-36.402,-23.293,-42.744,0.5108,100764.06
0.7354,0.0244,-0.4126,-35.0,10.61,5.0,0.8435,100764.67
1.0903,-0.0557,-0.4395,-23.049,12.012,21.829,1.1769,100764.62
1.3135,-0.1748,-0.5278,-29.939,-7.561,-10.122,1.4263,100764.84
1.5327,-0.0845,-0.6602,8.049,-0.061,-5.732,1.671,100764.74
1.54,0.1123,-0.2808,29.756,-25.732,13.78,1.5694,100764.2
1.4038,0.1821,0.3901,-47.256,-3.293,2.805,1.4684,100764.02
0.8276,-0.4038,0.2012,-110.976,-26.28,-19.268,0.9426,100763.88
0.6758,-0.3428,-0.1919,-5.427,-6.159,6.89,0.7817,100763.41
1.0078,0.1284,-0.2549,76.524,55.183,23.902,1.0474,100762.93
0.9893,0.2275,-0.3916,34.39,21.037,-1.646,1.088,100763.21
0.5708,-0.0894,-0.3511,-10.671,-23.232,4.207,0.6761,100762.67
0.2183,-0.2612,-0.2285,25.915,8.415,23.293,0.41,100762.63
0.4497,-0.0566,-0.2153,70.793,7.622,19.756,0.5018,100763.47
0.4531,-0.0127,-0.3564,65.244,-10.793,25.915,0.5767,100763.84
0.9224,-0.3613,-0.4585,38.232,4.146,8.598,1.0916,100764.75
1.7144,-0.481,-0.3994,41.524,41.524,-28.11,1.8248,100764.56
1.499,-0.0278,-0.5332,9.085,-6.585,-49.695,1.5913,100764.68
1.9756,-0.2793,-0.3975,-61.829,-7.805,-32.195,2.0344,100765.01
1.5444,-0.1699,0.4639,-19.024,42.439,10.854,1.6215,100765.14
0.7935,0.0864,0.2949,20.61,-6.646,25.305,0.8509,100764.98
0.6865,0.0645,0.2139,45.915,10.305,28.11,0.7219,100764.25
0.9253,-0.1421,-0.1221,7.256,26.951,3.659,0.9441,100765.04
1.0723,-0.2524,-0.4058,-15.0,-12.5,-5.366,1.1739,100765.04
0.4077,-0.2437,-0.2539,-28.476,-47.927,-14.207,0.5386,100764.54
0.272,-0.0483,-0.1147,-35.854,-42.683,-39.512,0.2991,100764.91
0.3467,0.0425,-0.25,-28.476,-34.695,-28.354,0.4295,100766.15
0.7949,0.0801,-0.3916,5.915,-1.098,-0.183,0.8898,100765.86
1.0386,0.0039,-0.3643,-12.622,-0.671,12.317,1.1006,100765.78
1.5635,-0.4746,-0.6802,-45.549,-1.098,6.707,1.7698,100766.2
1.7476,-0.2373,-0.646,9.573,13.841,4.878,1.8782,100765.78
1.7837,0.2798,-0.0186,-6.89,4.024,-25.061,1.8056,100765.23
1.1436,0.145,0.2578,-96.28,-60.671,-44.573,1.1812,100764.18
0.7124,-0.2466,-0.0723,-53.11,-65.488,17.378,0.7573,100764.87
0.7773,-0.2993,-0.2466,20.061,-22.378,69.024,0.8687,100764.18
0.8467,-0.1807,-0.2725,25.793,7.256,22.256,0.9076,100763.78
0.7217,0.167,-0.2422,8.598,-3.415,-20.244,0.7793,100764.09
0.3423,-0.0122,-0.2764,-28.354,-37.439,4.207,0.4401,100764.19
0.1992,-0.2026,-0.2993,-23.232,-27.439,14.207,0.4127,100763.54
0.3716,-0.1377,-0.4268,30.488,3.293,0.549,0.5824,100764.65
0.7344,-0.2266,-0.6304,67.256,35.427,3.415,0.994,100763.87
1.4053,-0.2593,-0.542,100.671,83.537,4.146,1.5283,100764.52
1.6641,-0.1343,-0.5,52.134,45.671,-29.146,1.7427,100764.65
1.7388,-0.1245,-0.6807,-24.268,-14.573,-41.585,1.8714,100764.61
1.7026,-0.3086,-0.0786,-4.939,-7.195,0.183,1.7322,100764.09
0.8154,0.1201,0.3833,21.89,-30.122,21.098,0.909,100764.45
0.6353,-0.022,-0.0708,-1.22,-27.195,37.805,0.6396,100764.83
1.0391,-0.0693,-0.2388,-6.463,16.951,23.476,1.0684,100765.26
1.083,-0.1006,-0.3081,-0.183,18.659,7.683,1.1305,100765.34
0.437,-0.1421,-0.1636,3.476,-16.402,4.512,0.4878,100764.88
0.1089,-0.0986,-0.0635,-22.439,-28.11,-17.5,0.16,100764.8
0.127,-0.0547,-0.1719,-48.171,-26.098,-25.183,0.2206,100765.87
0.6055,-0.082,-0.4888,-44.329,7.927,1.463,0.7824,100765.9
1.1367,-0.0703,-0.5762,-21.28,53.232,5.549,1.2763,100765.57
1.4233,-0.1216,-0.644,-27.683,46.159,-14.39,1.567,100765.83
1.7729,-0.2881,-0.877,4.573,18.963,5.488,1.9988,100766.25
1.6865,0.1348,-0.457,40.488,-17.683,29.878,1.7525,100766.2
1.4023,0.2837,0.3926,-67.073,-15.671,10.183,1.4836,100766.05
0.7944,-0.3311,0.353,-136.951,-1.646,-16.707,0.9302,100765.7
1.0786,-0.3965,-0.2393,-46.098,20.488,19.695,1.1738,100765.8
0.8867,-0.125,-0.2598,49.939,46.646,49.024,0.9324,100764.88
0.7388,0.1816,-0.3413,23.049,-2.439,-25.305,0.8338,100763.7
0.3491,-0.127,-0.3848,17.927,-29.695,-2.805,0.5348,100763.93
0.3755,-0.2534,-0.0889,66.707,-10.244,-7.744,0.4616,100765.09
0.8091,-0.1851,-0.189,67.561,-3.598,3.659,0.8512,100765.84
0.9009,-0.2603,-0.3711,51.159,-13.049,2.012,1.0085,100765.29
1.1763,-0.3462,-0.5493,44.756,-16.341,-21.951,1.3436,100765.85
1.5879,-0.0625,-0.5825,56.159,-9.695,-22.073,1.6925,100765.8
1.9336,-0.1606,-0.4302,1.646,-30.427,-26.402,1.9874,100766.24
1.2461,-0.2363,0.2896,-13.598,-19.756,4.207,1.3009,100765.97
0.5806,0.1724,0.2129,-7.5,-15.671,22.073,0.6419,100765.91
0.8281,0.0825,-0.1543,8.293,25.854,15.427,0.8464,100764.72
1.1431,-0.1812,-0.2788,2.622,43.963,0.976,1.1904,100764.3
0.7134,-0.2651,-0.3042,-2.622,-0.61,3.78,0.8196,100764.88
0.2705,-0.1118,-0.0352,-14.39,-13.11,3.841,0.2948,100764.43
0.3594,-0.0342,-0.1494,-65.976,-8.232,-11.341,0.3907,100765.2
0.3467,-0.0249,-0.2778,-56.951,23.963,-0.61,0.445,100765.3
0.9639,0.0464,-0.4458,-20.61,38.537,-1.707,1.063,100765.98
1.5337,-0.1294,-0.5288,-28.293,20.854,-8.72,1.6274,100766.02
1.6089,-0.2026,-0.6172,-14.695,11.829,8.902,1.7351,100766.15
1.748,0.0059,-0.6143,15.793,-26.28,16.707,1.8528,100765.16
1.7329,-0.0029,0.0674,-30.61,-26.037,5.671,1.7342,100765.02
0.6958,-0.2002,0.6392,-61.341,-5.732,-2.073,0.9658,100766.15
0.5952,-0.2578,0.1621,-46.646,-11.159,4.39,0.6686,100765.52
1.2861,-0.0679,-0.4062,-22.195,15.366,-4.695,1.3505,100765.43
0.9673,0.1465,-0.4009,27.378,19.512,-3.598,1.0573,100765.09
0.5308,0.0757,-0.2485,26.585,-6.402,15.671,0.5909,100764.0
0.2534,-0.1821,-0.1294,1.159,-2.317,19.085,0.3378,100764.64
0.3105,-0.2158,-0.1543,9.878,16.524,4.268,0.4084,100764.76
0.7178,-0.1846,-0.2949,32.927,9.878,10.427,0.7976,100765.59
0.9102,-0.2378,-0.3823,38.354,-5.0,13.171,1.0154,100765.72
1.2119,-0.1963,-0.5352,31.098,-15.549,-17.378,1.3393,100765.94
1.6323,-0.021,-0.5669,49.085,12.805,-15.0,1.7281,100766.11
1.9297,-0.124,-0.5044,11.951,-21.402,-13.659,1.9984,100765.98
1.4961,-0.4844,0.2178,-16.463,-1.89,17.195,1.5876,100765.65
0.6655,-0.0249,0.3491,3.232,-22.439,20.366,0.752,100765.76
0.833,0.2148,-0.0034,32.134,-5.122,-0.366,0.8603,100765.38
1.1489,0.0269,-0.0806,15.427,38.598,-3.598,1.1521,100764.96
0.8999,-0.207,-0.3506,-5.732,-0.61,1.098,0.9877,100765.76
0.4116,-0.2446,-0.2725,23.293,-34.634,3.841,0.5509,100765.12
0.3159,-0.1143,-0.0405,16.341,-16.89,-19.573,0.3384,100765.49
0.3389,0.0981,-0.124,-13.841,-15.61,-23.11,0.374,100765.3
1.0415,-0.2026,-0.4551,-18.659,-5.671,8.537,1.1545,100765.77
1.5889,-0.2534,-0.5361,-50.366,20.793,-4.451,1.6959,100766.11
1.6221,-0.0605,-0.7461,-34.817,9.39,-9.451,1.7865,100766.62
1.6685,0.2495,-0.6729,1.28,-35.61,-1.037,1.8162,100766.87
1.3921,-0.0293,0.1909,-46.341,-34.024,2.927,1.4054,100766.06
0.5488,-0.312,0.354,-61.768,-20.61,-0.976,0.7238,100765.95
0.979,-0.3394,-0.0435,-25.061,18.841,-10.183,1.0371,100766.01
1.2446,0.0679,-0.1528,28.415,72.378,-16.829,1.2558,100765.81
1.0815,0.126,-0.3828,11.524,43.415,7.256,1.1542,100765.53
0.5269,-0.1719,-0.3135,-15.244,-0.549,7.378,0.6367,100764.71
0.2314,0.0889,-0.1685,16.341,5.061,-6.463,0.2997,100764.83
0.5923,0.0244,-0.1992,47.012,32.073,14.878,0.6254,100765.29
0.7666,-0.1489,-0.2881,51.646,-0.244,23.11,0.8324,100765.13
0.7026,-0.2031,-0.2827,28.476,-31.341,4.329,0.7841,100764.77
0.8188,-0.3125,-0.2373,11.037,-4.329,16.951,0.908,100765.0
1.708,-0.3511,-0.6504,34.451,12.866,-7.988,1.8611,100765.3
1.7344,0.2998,-0.626,47.073,-28.841,-52.256,1.8681,100765.88
1.6172,-0.3257,0.1147,-10.122,-1.28,-12.805,1.6536,100766.21
0.8843,-0.021,0.707,-1.463,15.976,22.561,1.1324,100765.72
0.8789,0.208,0.0049,-12.256,-8.232,9.756,0.9032,100765.7
1.3057,0.0283,-0.3799,4.085,18.659,-0.122,1.3601,100764.84
0.7949,-0.1367,-0.3672,18.72,-3.537,11.463,0.8862,100764.82
0.2456,-0.1885,-0.1426,2.378,-26.159,10.0,0.3408,100764.41
0.2026,-0.1934,-0.1167,-33.659,-17.378,-15.061,0.3034,100764.38
0.377,0.0137,-0.2075,-23.902,3.476,-7.317,0.4305,100764.59
0.8037,0.0215,-0.3237,-6.037,12.195,14.329,0.8667,100765.34
1.4155,-0.126,-0.4258,-31.524,6.098,0.488,1.4835,100765.93
1.7905,-0.1421,-0.5127,-56.28,13.72,-1.524,1.8679,100766.22
1.499,-0.0063,-0.6743,-30.793,-28.11,1.951,1.6437,100766.1
1.5376,0.2979,-0.0322,-26.585,-22.988,-22.317,1.5665,100765.87
0.9375,0.0034,0.439,-65.061,-20.488,-21.341,1.0352,100765.47
0.7051,-0.4409,0.0576,-30.732,-3.72,44.756,0.8336,100765.27
1.0483,-0.3833,-0.3179,25.61,34.451,37.866,1.1606,100765.27
0.1797,-0.1768,-0.2847,12.988,-31.037,36.951,0.3802,100764.47
0.1934,-0.1973,-0.1455,62.012,7.012,21.22,0.3122,100764.91
0.5029,-0.0347,-0.1968,72.195,10.915,-4.085,0.5412,100764.73
1.1533,-0.4146,-0.478,35.244,-5.793,-11.22,1.3155,100765.46
1.3501,-0.3608,-0.3618,16.89,-3.659,-20.61,1.4436,100766.02
1.4438,-0.1035,-0.4341,-12.988,2.561,-4.939,1.5112,100767.3
1.5366,-0.1597,-0.7485,-29.024,-14.451,2.561,1.7167,100766.91
1.6182,-0.3276,-0.1963,-15.061,40.732,1.646,1.6626,100766.23
1.0049,0.0415,0.3589,2.805,40.976,23.415,1.0679,100766.23
0.8354,0.0879,0.0352,3.841,11.951,17.561,0.8408,100766.09
0.9956,0.0571,0.1089,35.671,40.549,-0.183,1.0032,100765.99
1.0737,-0.1665,-0.1748,18.537,24.146,6.402,1.1005,100765.55
0.688,-0.2686,-0.3306,-3.049,-20.061,8.049,0.8091,100765.96
0.3652,-0.0947,-0.1523,-15.061,-27.744,-28.841,0.4069,100766.52
0.3403,0.0396,-0.1421,-24.451,-14.878,-36.89,0.3709,100766.95
0.6104,-0.0347,-0.2876,-16.037,-11.585,-4.085,0.6756,100767.5
0.9097,-0.1978,-0.269,-9.573,0.915,29.085,0.969,100767.66
1.46,-0.3286,-0.4072,-43.415,10.732,2.988,1.5509,100767.19
1.6309,-0.0874,-0.6196,-29.817,-9.878,-45.122,1.7468,100766.45
1.6494,0.3823,-0.0269,3.598,2.683,-20.061,1.6934,100765.91
1.4131,-0.1396,0.521,-75.671,2.073,4.085,1.5125,100765.98
0.9131,-0.5757,0.0786,-71.707,-36.159,-12.073,1.0823,100765.79
0.999,0.0039,-0.3247,36.829,19.634,-3.902,1.0505,100766.02
0.4302,-0.001,-0.1782,-7.073,-32.622,-4.634,0.4656,100765.98
0.1196,-0.3013,-0.2568,-2.134,-33.11,19.39,0.4136,100766.41
0.3838,-0.1479,-0.1572,48.841,7.134,3.963,0.4403,100765.87
0.8574,-0.0308,-0.1719,71.585,15.488,3.476,0.875,100765.59
1.1294,-0.147,-0.4893,34.756,-9.268,7.683,1.2396,100765.52
1.4146,-0.2051,-0.6445,2.988,-25.366,-4.329,1.5679,100765.69
1.4458,-0.2544,-0.6162,24.268,-23.232,-1.037,1.5921,100765.7
1.499,-0.0132,-0.3735,-1.098,-33.415,-7.744,1.5449,100764.87
1.5933,-0.3149,-0.1133,-55.366,-17.805,-26.951,1.628,100765.09
0.9399,0.1279,0.4565,4.451,-5.549,-6.22,1.0528,100765.51
0.7676,0.3003,0.1763,14.756,4.573,32.317,0.8429,100765.83
1.0308,-0.0518,-0.2808,-0.61,28.963,41.89,1.0696,100765.33
0.8354,-0.2588,-0.4229,-7.622,4.024,31.463,0.9715,100765.69
0.3955,-0.2173,-0.2002,-32.866,-9.878,6.098,0.4937,100765.09
0.3164,-0.0571,-0.0811,-64.39,-7.683,-27.195,0.3316,100765.02
0.376,0.0439,-0.1987,-58.537,-15.854,-19.268,0.4275,100764.45
0.6743,0.0117,-0.4468,-28.963,12.256,9.451,0.809,100764.8
1.1416,-0.0015,-0.5615,-33.293,19.939,7.561,1.2722,100765.42
1.498,-0.1372,-0.5591,-43.963,23.659,7.744,1.6048,100766.25
1.627,0.0449,-0.6665,-3.415,14.939,22.073,1.7588,100766.75
1.5151,0.1665,-0.5928,3.293,-44.634,13.232,1.6355,100765.65
1.3613,0.1685,0.3096,-48.293,-10.305,-8.659,1.4062,100765.42
0.7505,-0.3784,0.3447,-93.232,-16.829,-16.22,0.9084,100765.15
0.9297,-0.291,-0.2646,-10.488,1.28,15.549,1.0095,100765.66
0.8926,0.2876,-0.3066,52.378,-3.72,-22.927,0.9866,100766.29
0.4292,-0.2163,-0.4482,17.683,-43.415,6.098,0.6572,100766.05
0.1216,-0.2212,-0.1675,57.012,-10.0,19.451,0.3029,100765.35
0.4409,-0.0537,-0.0879,62.927,-10.671,9.329,0.4528,100765.45
0.6157,-0.1118,-0.332,43.293,-14.634,23.963,0.7084,100765.77
1.1274,-0.3447,-0.7119,20.793,20.183,-2.683,1.3772,100766.01
1.5586,-0.0898,-0.5596,65.671,29.512,-24.817,1.6584,100767.42
1.4761,-0.0112,-0.4517,35.122,-4.268,3.598,1.5437,100767.26
1.7529,-0.4727,-0.4482,-57.073,-6.829,1.22,1.8701,100766.76
1.3179,-0.1221,0.2427,-5.366,22.5,-2.256,1.3456,100765.66
0.7441,0.2798,0.1816,27.866,5.854,17.866,0.8155,100766.05
1.0581,0.1006,-0.1641,30.366,21.28,26.524,1.0755,100765.0
1.0273,-0.1309,-0.375,12.805,0.61,4.573,1.1014,100765.06
0.481,-0.2852,-0.377,11.524,-30.915,6.585,0.6743,100764.39
0.2915,-0.1353,-0.0522,18.537,-15.793,-19.085,0.3256,100764.87
0.3208,0.0317,-0.0356,-22.378,-11.524,-36.402,0.3243,100764.36
0.4243,0.0503,-0.3584,-48.415,-11.402,-25.793,0.5577,100763.37
0.8447,-0.103,-0.5762,-47.622,0.427,-19.512,1.0277,100763.35
1.5605,-0.2812,-0.5532,-61.098,34.695,-24.634,1.6794,100763.84
1.8291,-0.2192,-0.7207,-43.049,13.171,5.0,1.9782,100763.98
1.4854,0.1475,-0.7124,20.0,-27.5,21.646,1.6539,100764.2
1.3286,0.4814,0.2148,-10.061,3.78,-22.012,1.4294,100764.38
0.8032,-0.228,0.3867,-79.268,6.341,-58.171,0.9202,100764.88
0.854,-0.4028,0.02,-21.037,19.146,0.0,0.9445,100765.98
0.9497,-0.0137,-0.0649,64.512,41.037,50.793,0.952,100766.07
0.873,0.3008,-0.1416,63.354,58.78,10.732,0.9342,100766.65
0.752,0.0405,-0.4165,-2.988,7.561,-17.744,0.8606,100765.45
0.2939,-0.1484,-0.3169,6.89,-22.866,-1.768,0.457,100765.06
0.4346,-0.0249,-0.126,41.524,15.732,12.195,0.4531,100765.14
0.8193,-0.2153,-0.458,50.061,-22.683,11.829,0.963,100764.93
1.1309,-0.1685,-0.4404,19.146,4.573,10.915,1.2252,100765.77
1.9199,-0.3896,-0.458,26.89,47.439,4.146,2.0119,100766.12
1.6411,0.2002,-0.7012,15.793,-25.732,-13.171,1.7958,100766.56
1.6875,-0.3179,-0.0532,-25.671,-25.488,-12.744,1.718,100766.01
1.0298,0.0405,0.6782,-2.866,-5.61,5.793,1.2337,100765.58
0.7354,-0.0103,0.0625,-6.22,-15.244,25.122,0.7381,100765.77
1.1167,0.0293,-0.1367,28.415,12.256,26.22,1.1254,100766.91
1.0166,-0.0781,-0.3389,26.951,-4.268,-3.171,1.0744,100766.27
0.4473,-0.0977,-0.1665,5.305,-36.402,-12.805,0.4871,100765.31
0.1597,-0.1763,0.0146,-29.695,-9.207,-22.012,0.2383,100765.09
0.3198,-0.1299,-0.1606,-34.207,11.829,-17.927,0.3807,100764.93
0.5815,0.0225,-0.2915,-9.146,12.988,3.232,0.6509,100765.41
0.9888,0.0981,-0.3809,-18.476,20.305,2.012,1.0641,100765.03
1.5938,-0.2314,-0.6543,-58.232,18.537,-5.549,1.7383,100765.6
1.7612,-0.2427,-0.7671,-15.793,3.78,-9.512,1.9363,100766.04
1.439,0.2417,-0.3516,34.939,-36.646,-8.415,1.5009,100766.01
1.3022,0.3711,0.5044,-42.561,-11.037,-10.244,1.445,100764.87
0.7417,-0.4927,0.1997,-108.049,-32.683,-22.866,0.9125,100764.86
1.0146,-0.2983,-0.1499,-6.646,8.293,4.207,1.0682,100765.36
1.1924,0.2109,-0.1421,40.793,56.037,27.378,1.2192,100765.74
0.9482,0.2505,-0.2397,16.098,17.622,7.378,1.0096,100766.02
0.4912,-0.0264,-0.3418,-16.098,-52.927,10.122,0.599,100765.75
0.1514,-0.1328,-0.2256,10.976,-47.683,16.098,0.3024,100765.68
0.3491,-0.1318,-0.1377,36.22,-11.524,18.963,0.3978,100765.5
0.6816,-0.2319,-0.3818,40.061,-25.549,32.744,0.815,100765.11
1.0684,-0.2676,-0.6416,46.768,-25.549,13.659,1.2746,100765.3
1.437,-0.1089,-0.5059,43.476,-8.11,-21.341,1.5273,100765.7
1.4888,0.0161,-0.6084,38.171,-2.073,-28.902,1.6084,100764.88
1.6553,-0.1011,-0.5459,1.707,-14.146,1.646,1.7459,100765.76
1.2695,-0.3584,0.1055,-4.512,14.695,14.39,1.3234,100766.05
0.6035,0.1519,0.3521,25.366,22.439,15.061,0.715,100766.27
0.9663,0.1519,-0.1323,25.549,34.512,9.451,0.9871,100766.17
1.3984,-0.0298,-0.4219,19.878,29.268,-3.049,1.461,100765.86
0.7979,-0.2607,-0.3643,12.073,-15.915,7.378,0.915,100765.37
0.2168,-0.2534,0.0083,-3.963,-18.049,-11.707,0.3336,100765.77
0.2334,-0.0742,-0.0737,-28.171,13.232,-31.768,0.2558,100764.7
0.5103,0.0742,-0.3179,-15.793,35.305,-19.024,0.6057,100764.39
0.8589,0.0566,-0.4375,-1.098,34.329,4.268,0.9656,100764.9
1.0962,-0.1606,-0.46,-23.963,29.817,9.085,1.1996,100764.89
1.6523,-0.2817,-0.562,-37.988,29.878,-4.451,1.7679,100765.65
1.8916,-0.1387,-0.6099,5.122,-4.573,-11.768,1.9923,100766.09
1.7207,0.3335,0.3042,2.561,11.524,-2.256,1.7789,100766.67
0.9097,-0.0747,0.6055,-84.573,-9.878,-5.122,1.0953,100766.62
0.6147,-0.3774,0.0645,-54.817,-26.829,-1.829,0.7242,100766.8
0.9966,-0.0791,-0.2544,34.939,32.988,24.512,1.0316,100766.34
1.1167,0.1836,-0.2822,42.378,25.915,16.22,1.1664,100766.23
0.5698,-0.0605,-0.3081,-7.927,-34.024,-3.049,0.6506,100766.66
0.1812,-0.0542,-0.2354,1.22,-28.354,7.317,0.3019,100766.24
0.2305,-0.0625,-0.0898,31.524,9.756,15.427,0.2551,100766.55
0.6094,-0.1074,-0.2124,50.244,4.878,23.11,0.6542,100766.75
0.9658,-0.3833,-0.4951,47.866,-0.488,3.963,1.151,100766.8
1.1831,-0.2378,-0.4478,35.427,0.366,-6.402,1.2872,100766.22
1.4507,-0.1465,-0.4429,6.098,11.159,4.39,1.5238,100765.88
1.543,-0.0273,-0.5098,2.622,-15.915,-23.049,1.6252,100766.9
1.562,-0.3687,-0.2983,11.463,0.061,-8.11,1.6324,100767.15
1.4136,-0.2695,0.4951,35.061,39.146,13.72,1.5218,100766.37
0.9683,-0.0117,0.3667,-19.939,-14.695,-1.768,1.0354,100766.51
1.1748,0.0825,0.0454,-3.415,-3.354,5.488,1.1786,100766.88
1.0293,-0.0757,-0.1265,16.524,16.829,28.598,1.0398,100767.52
0.8052,-0.374,-0.3398,0.732,-6.524,16.402,0.9506,100767.25
0.5,-0.1729,-0.1978,-10.488,-26.463,-26.524,0.5648,100766.33
0.3433,0.0161,-0.064,-29.695,-15.915,-35.61,0.3495,100765.98
0.2744,-0.0405,-0.1089,-31.768,3.78,-15.366,0.298,100766.11
0.5107,-0.0469,-0.2588,-18.049,7.622,-8.72,0.5745,100766.2
0.9336,-0.0952,-0.2798,-24.695,35.549,3.537,0.9793,100765.95
1.6743,-0.3916,-0.5693,-57.195,46.646,10.549,1.8113,100765.58
1.8853,-0.1245,-0.6582,-11.89,12.317,-21.829,2.0007,100765.95
1.6152,0.418,-0.0508,11.829,-28.902,-10.671,1.6692,100765.46
1.3032,-0.0454,0.5786,-83.415,10.0,24.451,1.4266,100765.45
0.7148,-0.6528,0.2808,-96.22,-16.28,0.061,1.008,100765.72
0.8184,-0.2119,-0.1587,-7.683,1.768,-12.5,0.8601,100765.54
1.0034,0.1841,-0.2305,31.037,12.5,-0.976,1.0459,100766.14
0.7524,0.1626,-0.2368,0.366,-21.402,-1.463,0.8054,100766.46
0.3115,-0.0625,-0.1816,-23.354,-39.634,7.622,0.366,100766.36
0.1484,-0.1597,-0.1362,1.585,-19.207,9.756,0.2571,100767.26
0.6338,-0.1206,-0.2715,37.134,14.329,15.793,0.7,100766.81
1.0166,-0.3101,-0.5474,77.927,6.159,22.195,1.1955,100767.7
1.3633,-0.0107,-0.335,80.122,-0.183,-1.829,1.4039,100767.28
1.4868,-0.2417,-0.415,2.683,-2.683,-5.366,1.5625,100767.08
1.4233,-0.1035,-0.5703,-10.793,-38.537,-0.671,1.5368,100767.56
1.6533,-0.582,-0.1294,-20.122,-5.793,-9.268,1.7575,100766.92
1.167,0.0483,0.6904,24.329,30.488,-7.561,1.3568,100766.32
1.04,0.3115,0.2871,5.915,8.659,8.841,1.123,100766.14
1.1387,-0.1167,-0.1846,-1.951,5.549,27.195,1.1594,100765.99
0.7734,-0.3574,-0.3755,7.988,-13.598,23.537,0.9311,100766.0
0.2456,-0.1201,-0.1304,14.024,-13.841,-5.976,0.3029,100765.77
0.3101,0.0312,-0.041,-24.146,-1.037,-18.537,0.3143,100765.86
0.3486,-0.0112,-0.1777,-45.549,-11.341,-10.488,0.3915,100765.53
0.6118,-0.0225,-0.3853,-31.524,4.207,-10.976,0.7234,100766.87
1.0464,-0.103,-0.4854,-16.89,9.39,-22.195,1.1581,100767.64
1.7261,-0.2505,-0.604,-29.512,7.439,-18.902,1.8458,100767.85
1.8779,-0.2007,-0.6118,-5.183,-9.329,10.305,1.9852,100767.13
1.4795,0.2476,-0.2256,15.0,-64.085,-1.341,1.5169,100766.48
1.126,0.186,0.5088,-61.829,-19.756,-22.744,1.2495,100765.62
0.8149,-0.5361,0.3164,-96.037,3.659,-17.317,1.0255,100765.48
1.0054,-0.4526,-0.1938,-11.707,25.427,15.976,1.1195,100766.98
1.1118,0.1753,-0.2637,53.232,49.451,5.122,1.156,100766.73
1.0161,0.4048,-0.2715,20.061,13.171,-25.366,1.127,100765.95
0.4189,0.0122,-0.3315,-10.0,-49.024,2.134,0.5344,100765.73
-0.0088,-0.0605,-0.1831,27.5,-47.683,27.073,0.1931,100765.92
0.0942,-0.1499,-0.1523,45.305,-36.098,14.329,0.2336,100766.07
0.3823,-0.2866,-0.3906,56.28,4.39,7.317,0.6172,100765.68
1.3765,-0.2476,-0.4941,69.573,54.146,-21.22,1.4833,100766.75
1.7466,0.0034,-0.3838,47.256,31.524,-45.122,1.7883,100767.66
1.3711,-0.0347,-0.5679,-4.024,-26.89,-5.366,1.4844,100767.36
1.4097,-0.5166,-0.8643,-19.512,-12.134,21.951,1.7323,100766.8
1.6431,-0.124,0.3076,27.866,45.305,7.988,1.6762,100766.84
1.0898,0.1396,0.5215,-50.061,5.183,0.854,1.2162,100766.42
1.0728,0.0791,-0.0327,-38.415,-14.756,13.902,1.0762,100766.19
1.0024,0.1807,-0.1108,40.305,11.524,49.512,1.0246,100765.78
0.8882,-0.2246,-0.3228,19.268,8.78,54.085,0.9713,100765.96
0.7031,-0.3218,-0.3213,-18.963,-3.476,-4.207,0.8373,100765.61
0.4004,-0.0449,-0.1294,-26.098,-12.012,-44.756,0.4232,100765.85
0.5308,-0.1987,-0.2915,-62.134,-3.72,-10.488,0.6373,100767.02
0.8486,-0.0107,-0.3418,-21.524,10.549,0.793,0.9149,100766.77
1.4248,-0.0864,-0.4429,-21.341,23.476,5.0,1.4945,100766.58
1.7441,-0.2769,-0.6987,-14.878,8.841,14.817,1.8992,100766.09
1.3945,0.1909,-0.3628,-12.866,-32.134,15.305,1.4535,100765.97
1.4106,0.2979,0.48,-81.463,-2.439,-4.756,1.5195,100765.98
1.0093,-0.4287,0.2397,-102.683,-17.378,-43.598,1.1225,100766.0
1.0391,-0.2773,-0.2266,18.293,16.037,5.122,1.099,100766.52
0.9453,0.25,-0.2559,75.61,14.939,23.78,1.0107,100766.41
0.5674,0.2158,-0.2847,13.11,-36.098,-0.732,0.6705,100765.96
0.3271,-0.105,-0.252,-18.354,-42.683,10.732,0.4261,100766.71
0.1333,-0.0879,-0.0815,22.5,-11.89,17.866,0.1793,100767.05
0.3882,-0.1001,-0.1514,48.963,24.756,20.244,0.4285,100766.82
0.8574,-0.3599,-0.5117,70.854,50.671,24.207,1.0614,100767.86
1.5698,-0.2251,-0.708,75.122,46.89,-14.39,1.7367,100768.15
1.606,-0.0244,-0.3262,41.89,21.524,-23.841,1.6389,100768.62
1.27,-0.1187,-0.4502,-10.488,-42.622,16.829,1.3527,100768.23
1.5386,-0.4897,-0.3218,-15.122,-10.305,3.415,1.6464,100768.05
1.4248,0.0913,0.7109,44.207,50.61,-20.061,1.5949,100767.94
0.9839,0.373,0.4312,8.293,8.232,-2.073,1.1371,100767.48
1.1885,0.0547,-0.0884,18.049,12.988,22.439,1.193,100767.02
0.9712,-0.2578,-0.2764,23.232,-0.061,19.695,1.0421,100766.41
0.4902,-0.4116,-0.2432,9.512,-17.805,-1.463,0.6848,100765.96
0.2485,-0.0811,0.0132,-9.878,-3.415,-28.598,0.2618,100766.36
0.2324,-0.0239,-0.0347,-47.805,-16.28,-28.171,0.2362,100765.67
0.4014,0.0249,-0.2983,-42.134,-20.549,-10.183,0.5007,100766.01
0.7734,0.0942,-0.4375,-23.171,7.012,-0.366,0.8936,100766.77
1.2275,-0.1543,-0.5156,-22.866,32.744,-8.537,1.3403,100766.7
2.0493,-0.2407,-0.4976,25.61,82.805,-10.854,2.1225,100766.55
1.8481,0.2534,-0.3481,47.317,-13.476,-17.805,1.8976,100766.3
1.4058,0.3623,0.1816,-38.354,-34.146,9.329,1.463,100766.01
0.6558,-0.4644,0.2729,-55.366,0.671,-29.512,0.8486,100766.56
1.1592,0.0449,-0.1699,19.024,24.756,-10.061,1.1724,100766.57
1.2485,0.4077,-0.3359,20.854,6.098,-16.707,1.3557,100765.84
0.6729,0.2139,-0.2246,7.134,-42.5,10.854,0.7409,100765.91
0.2344,-0.0991,-0.0898,16.402,-46.037,44.329,0.2699,100765.72
0.2754,-0.1562,-0.0596,35.854,-20.549,27.317,0.3222,100766.57
0.4688,-0.2358,-0.2227,47.561,-23.415,16.159,0.57,100766.72
0.9688,-0.2393,-0.5659,56.646,-19.207,2.683,1.1472,100767.05
1.2671,0.0728,-0.437,60.366,-13.11,-16.037,1.3423,100766.7
1.5674,-0.0952,-0.3452,20.244,-18.537,-1.159,1.6078,100766.94
1.584,-0.2148,-0.5889,-1.524,-51.524,-7.927,1.7035,100767.09
1.7085,-0.3779,-0.0576,-7.012,-23.659,-17.866,1.7507,100767.46
0.9385,0.1831,0.5059,-0.976,-30.488,-8.841,1.0817,100767.02
0.7598,0.1816,0.0298,-6.463,-13.598,6.341,0.7817,100767.8
1.2192,-0.0093,-0.2476,22.866,21.829,19.756,1.2442,100767.77
1.0112,-0.2651,-0.4717,26.037,1.646,27.927,1.1469,100767.38
0.3638,-0.2285,-0.2246,15.671,-23.232,9.268,0.4848,100767.7
0.2158,-0.0054,-0.0869,-38.171,-34.024,-25.061,0.2327,100767.08
0.3213,0.0029,-0.1738,-63.598,-22.683,-17.439,0.3653,100767.84
0.4507,0.0293,-0.3315,-43.598,3.354,1.951,0.5603,100767.29
0.7139,0.0605,-0.5083,-12.195,21.098,0.793,0.8784,100767.25
1.2041,-0.0537,-0.5591,-8.476,40.183,7.256,1.3287,100768.08
2.042,-0.3691,-0.8555,-2.256,62.927,32.561,2.2445,100768.09
1.5986,-0.1216,-0.9336,33.78,-5.427,13.293,1.8553,100768.22
1.4956,0.5635,0.1045,-21.585,-13.537,-2.012,1.6016,100767.73
1.186,-0.3066,0.4497,-130.549,-7.195,-13.537,1.305,100767.1
0.8052,-0.4756,0.0781,-37.134,-9.329,-2.439,0.9384,100766.5
0.7456,0.0225,-0.1733,40.488,23.659,13.598,0.7658,100765.91
1.0181,0.1885,-0.4624,16.463,31.402,-9.512,1.1339,100765.75
0.9512,0.1523,-0.3989,23.598,-5.915,-1.037,1.0426,100765.73
0.3848,-0.0488,-0.1436,32.134,-49.817,20.0,0.4136,100765.58
0.2217,-0.1636,-0.063,31.037,-31.463,9.817,0.2826,100765.36
0.4282,-0.1455,-0.187,38.841,-7.744,5.976,0.4894,100765.59
0.6851,-0.3745,-0.6147,42.378,-3.902,13.963,0.9937,100765.97
1.0645,-0.3257,-0.7432,64.512,-11.829,-9.39,1.3384,100766.64
1.2778,0.0703,-0.5029,50.732,-10.915,-15.854,1.375,100766.63
1.4009,-0.0566,-0.4463,-21.28,-24.024,-1.524,1.4713,100766.66
1.4443,-0.2637,-0.7998,-41.28,-26.646,-1.28,1.6719,100766.68
1.6118,-0.1689,-0.1821,40.488,15.427,-22.378,1.6308,100766.31
1.0571,0.3135,0.3022,71.28,-6.89,-7.5,1.1433,100765.91
0.894,0.0278,-0.1509,22.927,-8.171,16.341,0.9071,100766.21
0.9766,-0.1099,-0.2812,21.829,14.939,13.049,1.0222,100766.34
0.708,-0.1753,-0.2783,21.463,11.585,18.354,0.7807,100766.2
0.4346,-0.1772,-0.1436,-3.598,-5.305,5.305,0.4908,100765.84
0.334,-0.1646,-0.1323,-32.927,-17.012,-19.146,0.3951,100766.18
0.2515,-0.0303,-0.2427,-20.915,-12.561,-24.268,0.3508,100766.55
0.5815,-0.001,-0.4854,-9.207,-0.244,-21.037,0.7575,100766.59
0.9702,-0.1567,-0.6226,-25.0,0.549,-13.232,1.1634,100766.62
1.4458,-0.4033,-0.8628,-64.207,-7.622,-13.293,1.7313,100765.66
1.542,-0.1074,-1.0391,-23.78,-9.268,-6.829,1.8625,100765.93
1.9146,0.377,-0.5562,14.207,-2.988,-3.78,2.029,100765.62
1.3394,0.1396,0.3647,-35.427,-30.671,-18.78,1.3951,100765.3
0.7847,-0.1875,0.2275,-74.146,-47.866,4.146,0.8382,100766.14
0.9946,-0.4009,-0.3594,-60.061,16.22,23.293,1.131,100766.17
0.9233,-0.0361,-0.3716,26.585,55.61,0.061,0.996,100766.67
0.6284,0.2134,-0.2798,30.183,37.256,12.073,0.7202,100767.66
0.48,-0.0991,-0.3447,-34.207,-2.256,15.183,0.5992,100767.8
0.2104,0.0527,-0.2021,-31.22,-22.317,6.768,0.2965,100766.91
0.3696,-0.0288,-0.3496,-10.61,-17.317,23.11,0.5096,100766.63
0.5024,-0.2173,-0.6333,30.244,10.793,37.134,0.8371,100767.63
1.1577,-0.2651,-0.6265,75.244,49.634,-9.451,1.3428,100768.02
1.354,0.0977,-0.4629,92.378,20.549,-30.915,1.4343,100767.83
1.4634,-0.2651,-0.6104,36.098,7.195,-1.829,1.6076,100768.66
1.7559,-0.3428,-0.6118,-10.793,-8.841,-4.085,1.8907,100768.32
1.6104,-0.2397,0.063,-16.159,4.146,-10.0,1.6293,100768.3
0.8755,0.3154,0.375,35.976,4.512,11.463,1.0033,100768.03
0.748,0.2954,0.0439,37.073,19.695,14.451,0.8055,100768.09
0.9868,-0.1577,-0.3042,5.549,38.354,8.049,1.0446,100767.51
0.7427,-0.3608,-0.373,-12.256,3.049,13.598,0.9061,100767.69
0.3076,-0.167,-0.1348,-27.988,-31.829,-1.524,0.3751,100767.2
0.3296,-0.04,-0.1729,-45.305,-36.463,-22.073,0.3743,100766.73
0.3164,0.0107,-0.207,-20.183,-18.476,-5.854,0.3783,100766.87
0.7734,0.0562,-0.5552,-14.939,7.073,10.793,0.9537,100766.71
1.2793,-0.1587,-0.7837,-46.28,5.976,6.098,1.5086,100765.63
1.481,-0.3696,-0.7656,-50.366,16.768,-9.512,1.7076,100766.41
1.4761,0.0508,-0.7695,27.805,16.89,-4.085,1.6654,100766.5
1.9736,0.353,-0.0767,20.061,12.866,-16.402,2.0064,100766.22
1.1812,-0.0645,0.4863,-80.305,-29.878,-5.671,1.279,100766.09
0.4282,-0.3657,-0.0273,-87.073,-44.573,36.402,0.5638,100766.27
0.7441,-0.2598,-0.3916,-31.89,20.122,24.329,0.8801,100766.99
1.0757,0.0303,-0.4126,21.89,55.427,-19.085,1.1525,100766.07
0.856,0.2822,-0.2383,26.89,14.024,-12.317,0.9323,100766.24
0.2227,-0.1523,-0.1333,-10.0,-16.22,17.683,0.3009,100766.52
0.3496,-0.0767,-0.2334,-3.476,-23.841,17.927,0.4273,100765.98
0.5713,-0.332,-0.6265,19.817,2.134,17.805,0.9105,100766.91
1.2622,0.0029,-0.6001,74.39,44.268,-1.768,1.3976,100766.98
1.7427,0.0093,-0.6221,36.585,30.61,-8.78,1.8504,100767.53
1.418,-0.2544,-0.5791,-15.122,-19.207,-4.207,1.5526,100767.34
1.7598,-0.5063,-0.4331,-28.232,11.89,5.488,1.8817,100766.71
1.4502,0.0269,0.4258,19.878,16.951,7.622,1.5116,100767.34
0.791,0.3267,0.2739,4.939,-23.963,15.061,0.8986,100766.7
0.8765,-0.0732,-0.1401,12.866,24.756,19.207,0.8906,100766.98
1.105,-0.1504,-0.3447,39.268,49.512,16.463,1.1672,100766.82
0.8174,-0.2881,-0.3501,29.451,16.707,17.866,0.9347,100766.69
0.4097,-0.1333,-0.1069,-7.256,-26.951,-20.61,0.4439,100766.1
0.3809,0.0747,-0.1343,-39.695,-42.866,-40.549,0.4107,100765.65
0.3076,0.0205,-0.2773,-25.976,-30.488,-22.256,0.4147,100764.85
0.7085,-0.0366,-0.3472,5.183,0.793,-2.744,0.7898,100765.94
1.0552,-0.0288,-0.3472,-2.988,7.073,-0.976,1.1112,100765.3
1.5229,-0.3389,-0.7075,-23.11,15.061,4.878,1.7131,100765.91
1.8491,-0.21,-0.9229,21.28,-5.122,-1.829,2.0773,100766.27
1.6724,0.3696,0.2598,12.744,-15.61,-14.512,1.7323,100765.67
0.9805,-0.1567,0.6069,-102.927,-45.488,-6.707,1.1637,100766.09
0.6538,-0.5923,-0.3086,-94.146,-36.646,22.683,0.9346,100766.13
1.1416,-0.0176,-0.48,25.122,24.878,-4.451,1.2385,100765.83
0.9531,0.3901,-0.2217,67.744,7.439,-3.171,1.0535,100765.2
0.377,0.0708,-0.2529,-12.561,-53.171,31.037,0.4594,100764.63
0.1396,-0.292,-0.3154,-39.451,-39.756,28.415,0.4519,100764.58
0.1602,-0.1577,-0.2383,14.146,-13.049,5.061,0.3276,100765.27
0.4492,-0.0918,-0.3018,47.012,8.293,6.646,0.5489,100765.41
0.9658,-0.2402,-0.6836,29.146,23.232,10.244,1.2074,100765.76
1.4883,-0.2056,-0.8296,-2.683,3.659,-23.659,1.7162,100765.77
1.4609,-0.0967,-0.5649,3.963,-19.817,-10.854,1.5693,100766.65
1.4053,-0.1392,-0.8452,7.622,-13.537,8.598,1.6458,100766.46
1.7861,-0.3369,-0.2544,19.39,10.427,-11.159,1.8353,100767.03
1.0093,0.23,0.4092,28.354,12.622,-4.512,1.1131,100766.26
0.8203,0.104,-0.1265,22.561,19.329,8.841,0.8365,100766.51
1.1597,-0.019,-0.27,58.598,31.829,-0.671,1.1908,100766.6
1.0083,-0.2085,-0.3857,34.756,10.244,9.939,1.0995,100766.16
0.5259,-0.2964,-0.3345,-0.61,-19.207,2.744,0.6901,100765.83
0.2661,-0.1216,-0.1904,-17.744,-16.159,-23.963,0.3491,100765.23
0.2622,0.0503,-0.0796,-24.024,-13.171,-22.683,0.2786,100765.77
0.4463,-0.0068,-0.3057,-34.329,-24.695,-4.207,0.541,100765.91
0.7222,-0.146,-0.6045,-9.207,-8.537,20.549,0.953,100766.02
1.2979,-0.2207,-0.6401,-1.28,41.159,12.5,1.4639,100764.75
1.7021,-0.1519,-0.6963,-29.573,39.756,-4.207,1.8453,100765.9
1.3184,-0.0679,-0.8599,-27.256,-26.707,4.634,1.5755,100765.65
1.5288,0.189,-0.0845,-27.134,-19.512,12.134,1.5428,100765.95
1.1025,-0.2329,0.4331,-106.28,0.976,-25.061,1.2072,100765.83
0.5757,-0.3584,0.0527,-52.012,10.671,-12.988,0.6802,100765.59
1.0317,-0.0449,-0.3691,18.963,52.439,8.354,1.0967,100765.42
1.3262,0.2188,-0.5708,19.085,40.61,-20.305,1.4603,100765.54
0.7031,0.1289,-0.3677,4.451,-21.707,-2.012,0.8039,100765.38
0.2837,-0.0996,-0.2393,12.195,-47.256,32.378,0.3842,100765.04
0.2002,-0.0547,-0.1089,58.598,-12.012,31.829,0.2344,100765.0
0.1675,0.0454,-0.1284,76.098,1.524,19.39,0.2159,100766.34
0.7549,-0.2383,-0.4639,35.732,17.5,-16.951,0.9175,100767.59
1.3091,-0.4468,-0.7612,31.098,21.22,-33.11,1.5789,100766.7
1.3193,-0.1567,-0.6147,67.561,-1.037,-11.22,1.4639,100765.89
1.4346,0.0493,-0.6284,1.463,-7.012,0.366,1.567,100766.04
1.6621,-0.5444,-0.7432,-46.402,-21.585,-11.829,1.9003,100765.65
1.8057,-0.1445,0.2495,52.988,39.207,5.061,1.8285,100765.95
1.2358,0.2607,0.3813,42.256,5.854,32.378,1.3194,100765.83
0.7559,0.105,0.1362,-12.134,-12.073,8.476,0.7752,100766.73
0.7754,-0.1792,-0.1914,-39.512,7.439,0.976,0.8185,100766.52
0.7056,-0.3369,-0.563,-10.183,10.915,19.329,0.9635,100765.52
0.3726,-0.1782,-0.2607,4.817,-8.171,2.073,0.4884,100764.9
0.2158,0.0142,-0.0986,-22.073,-30.244,-30.244,0.2377,100765.26
0.3423,0.002,-0.2515,-38.11,-12.439,-20.732,0.4247,100766.04
0.7583,-0.0234,-0.5166,-13.902,14.451,-4.268,0.9178,100766.02
1.1401,-0.1128,-0.5796,-4.695,14.512,4.146,1.284,100766.23
1.5703,-0.2344,-0.686,-39.512,-4.268,11.098,1.7296,100765.93
1.5537,-0.1733,-0.6938,-36.037,-4.573,21.159,1.7104,100765.92
1.5,0.1724,-0.2583,-17.256,-11.89,12.988,1.5318,100765.92
1.2505,-0.1113,0.3237,-78.841,2.561,-30.183,1.2965,100765.8
0.7744,-0.3921,0.1069,-69.085,-18.049,-38.78,0.8746,100764.85
0.9897,-0.0381,-0.3916,24.695,26.524,5.427,1.0651,100764.38
1.0068,0.189,-0.377,79.329,45.61,13.049,1.0916,100764.4
0.6729,0.1001,-0.2017,39.695,2.866,7.622,0.7095,100764.92
0.2764,-0.2095,-0.2202,-7.073,-37.073,13.78,0.4108,100765.06
0.188,-0.1807,-0.1851,12.683,-42.683,0.549,0.3197,100765.77
0.2432,-0.1104,-0.2427,35.366,-24.878,-12.317,0.3608,100764.81
0.7012,-0.2681,-0.4771,41.585,11.585,-4.024,0.8894,100765.35
1.3628,-0.1973,-0.7139,58.171,36.524,-12.927,1.551,100765.74
1.5503,-0.1245,-0.7109,52.866,26.402,-2.256,1.7101,100765.66
1.354,0.0552,-0.6719,5.244,-26.89,6.585,1.5125,100766.36
1.5488,-0.5073,-0.6152,-27.256,-27.012,4.634,1.7421,100765.91
1.458,-0.2075,0.2725,31.341,22.683,-5.183,1.4977,100765.05
1.1113,0.2344,0.2324,3.232,3.049,4.207,1.1593,100765.39
1.105,0.2432,0.0039,11.707,8.354,5.366,1.1314,100765.92
1.04,0.0034,-0.1416,9.024,10.793,8.537,1.0496,100765.44
0.8384,-0.4263,-0.4795,-6.402,12.073,12.927,1.0557,100766.54
0.436,-0.2715,-0.3252,8.963,3.232,-13.232,0.6079,100766.03
0.3159,-0.0083,-0.1499,-21.646,-12.134,-40.061,0.3498,100765.64
1.2319,0.0151,-0.4839,-53.11,14.146,10.366,1.3236,100767.45
1.6768,-0.2974,-0.8862,-75.854,12.927,17.622,1.9197,100767.3
1.334,-0.1064,-0.9282,1.402,9.878,27.012,1.6286,100766.73
1.6245,0.4795,0.1094,-14.39,49.878,-32.744,1.6973,100765.8
1.2896,-0.0688,0.3042,-112.012,-15.549,-57.378,1.3267,100767.08
1.0454,-0.4956,-0.167,-70.915,-24.573,8.476,1.1689,100766.8
0.8564,-0.1118,-0.2915,33.171,12.195,10.976,0.9116,100766.61
0.7798,0.356,-0.3667,75.671,25.732,6.098,0.9323,100766.2
0.7646,0.2114,-0.3896,29.207,-12.805,40.61,0.8839,100766.53
0.3696,-0.2188,-0.3286,8.902,-42.866,25.244,0.5408,100767.12
0.0625,-0.1895,-0.1094,39.207,-25.732,-1.28,0.2275,100766.59
0.3726,-0.0439,-0.1372,36.098,-22.622,-3.841,0.3994,100766.93
0.5376,-0.1641,-0.437,29.207,5.915,-16.22,0.712,100766.7
1.2871,-0.2266,-0.7656,35.732,47.012,-13.354,1.5146,100767.15
1.7412,-0.1616,-0.8682,86.22,33.841,-10.549,1.9523,100767.96
1.4111,0.1904,-0.6211,31.463,-24.573,-22.256,1.5535,100766.86
1.8438,-0.5166,-0.2266,-34.695,-10.427,-8.171,1.9281,100766.65
1.3433,0.0591,0.4912,13.476,4.695,6.098,1.4315,100766.62
0.7681,0.1987,0.0674,-6.585,-29.695,12.012,0.7962,100767.95
1.0269,0.0918,-0.0889,29.573,1.707,6.829,1.0348,100766.86
0.856,-0.3057,-0.5625,-5.427,11.829,15.793,1.0689,100766.53
0.2896,-0.2065,-0.3066,-27.988,-17.256,-12.927,0.4696,100766.66
1.3892,0.3169,0.376,-71.829,31.098,-12.866,1.4736,100765.65
1.23,-0.5537,-0.0972,-106.768,5.976,-28.72,1.3524,100765.4
0.9888,-0.0371,-0.3496,30.366,4.573,-2.439,1.0494,100764.94
0.7197,0.3071,-0.3594,73.659,-1.89,22.378,0.8611,100765.2
0.3887,0.0532,-0.2612,49.451,-1.707,14.573,0.4713,100765.42
0.4126,-0.0688,-0.2959,22.134,-32.5,5.549,0.5124,100765.46
0.311,-0.0972,-0.231,32.073,-25.244,-9.39,0.3994,100764.77
0.3921,-0.146,-0.2119,63.049,36.402,-12.195,0.469,100765.7
0.6519,-0.2319,-0.4365,56.22,38.841,0.366,0.8181,100765.17
1.165,-0.4316,-0.791,40.244,32.927,-5.732,1.4729,100766.52
1.5117,-0.0332,-0.6812,57.5,53.963,-28.537,1.6584,100767.02
1.4834,0.1919,-0.7329,1.829,-6.768,-28.415,1.6657,100766.17
1.8262,-0.3125,-0.6333,-20.061,-28.232,-20.915,1.958,100766.14
1.644,0.0171,0.2974,44.085,7.439,-20.061,1.6708,100766.0
0.894,0.3857,0.3901,34.207,-34.207,10.488,1.049,100765.05
0.812,0.2168,0.1445,-5.122,-33.476,16.707,0.8528,100765.56
0.9204,-0.1372,-0.2729,-30.915,3.232,12.378,0.9698,100764.84
0.6953,-0.332,-0.5469,-16.768,24.878,35.671,0.9449,100765.77
0.293,-0.0938,-0.2441,-38.415,-27.805,-0.549,0.3927,100766.01
0.2002,0.1494,-0.2632,-51.524,-32.256,-12.622,0.3629,100766.18
0.6221,0.0771,-0.4321,-39.878,-2.195,-2.866,0.7614,100766.77
0.9658,-0.1455,-0.542,-30.427,22.134,5.976,1.117,100766.74
1.6562,-0.2632,-0.7354,-39.024,25.793,30.732,1.8312,100766.07
1.7739,-0.0972,-0.9487,-11.28,20.244,30.061,2.014,100765.22
1.6392,0.4272,-0.189,23.049,31.341,-3.049,1.7044,100765.69
1.2144,-0.0771,0.4492,-67.744,28.354,-9.512,1.2971,100765.04
0.8281,-0.46,0.0078,-81.463,-25.549,-14.207,0.9473,100765.31
0.8662,-0.0796,-0.3955,-12.805,-17.256,-9.146,0.9556,100765.02
0.855,0.0195,-0.3018,40.366,4.573,-3.11,0.9069,100765.54
0.6611,0.0566,-0.2905,45.122,20.427,9.634,0.7244,100765.7
0.5771,-0.0405,-0.2866,13.841,-18.598,12.927,0.6457,100765.31
0.3818,-0.0181,-0.2104,28.415,-45.732,-19.695,0.4364,100764.76
0.3125,-0.0806,-0.2295,51.22,-19.573,-2.256,0.396,100764.74
0.5142,-0.1685,-0.3691,60.122,-24.085,16.463,0.655,100765.45
0.6865,-0.2358,-0.6489,71.707,-17.439,-9.512,0.9737,100765.1
1.1689,-0.1826,-0.6934,89.451,8.72,-14.756,1.3713,100765.46
1.4551,-0.2393,-0.6582,38.841,11.402,-36.463,1.6148,100766.23
1.5371,-0.4033,-0.8462,-26.098,6.646,-22.195,1.8004,100766.94
1.7881,-0.2539,-0.1323,-3.902,27.195,7.683,1.8109,100765.75
1.3267,0.1587,0.1724,-22.439,2.622,12.927,1.3472,100767.09
1.1763,0.2485,-0.0747,-19.085,-18.537,1.707,1.2046,100766.47
0.874,0.0693,-0.0322,1.951,-18.171,16.89,0.8774,100766.74
0.7222,-0.3877,-0.4971,-11.585,-2.805,28.659,0.9586,100765.97
0.6528,-0.2114,-0.4424,27.927,33.598,4.085,0.8165,100766.51
0.5132,0.0122,-0.1685,7.988,17.134,-28.232,0.5403,100766.78
0.3564,-0.0127,-0.1543,-44.817,-26.341,-23.537,0.3886,100767.74
0.3984,-0.0527,-0.1831,-61.89,-18.415,-5.61,0.4417,100767.84
0.4863,-0.145,-0.3188,-56.159,-23.11,12.439,0.5993,100767.05
0.9917,-0.332,-0.624,-13.232,5.915,48.72,1.2178,100767.32
1.6299,-0.1992,-0.6392,-13.598,58.354,40.0,1.762,100767.04
1.4111,0.0742,-0.8975,-47.561,6.707,-20.061,1.674,100766.82
1.6123,0.4482,-0.1064,-13.902,10.366,6.524,1.6768,100768.0
1.3677,-0.5288,0.355,-115.0,13.659,12.805,1.5087,100767.16
0.9819,-0.5737,-0.1357,-96.829,-16.463,-36.098,1.1453,100766.92
0.9937,-0.0176,-0.4292,14.329,0.793,-19.512,1.0825,100766.75
0.7397,0.1636,-0.4028,65.976,23.902,5.793,0.8581,100767.22
0.5825,0.1328,-0.3047,6.463,4.329,12.927,0.6707,100767.44
0.2788,-0.1299,-0.2979,-37.195,-32.073,7.439,0.4282,100767.12
0.2485,-0.0586,-0.272,1.89,-28.11,4.512,0.3731,100766.9
0.4331,-0.1382,-0.29,38.293,-12.012,22.927,0.5393,100767.19
0.6157,-0.144,-0.4927,66.037,-6.585,14.878,0.8016,100766.95
1.3418,-0.064,-0.7422,51.341,7.927,-22.378,1.5347,100766.62
1.7568,-0.1196,-0.8579,43.293,8.11,-40.488,1.9588,100767.38
1.4751,0.1875,-0.377,26.341,-14.451,-19.695,1.534,100767.59
1.6875,-0.5464,-0.1094,-61.341,0.854,-2.012,1.7771,100767.12
1.1172,-0.085,0.1079,-39.817,-7.805,-27.988,1.1256,100766.27
1.0479,0.3232,-0.1147,16.28,-0.427,-4.817,1.1026,100766.48
0.9268,0.2207,0.0244,44.39,41.402,34.756,0.953,100767.37
0.9326,-0.187,-0.4375,11.524,45.61,26.159,1.047,100766.47
0.5811,-0.333,-0.4609,19.024,11.402,11.768,0.813,100766.77
0.2847,-0.1021,-0.1616,12.073,-15.976,-17.439,0.3429,100766.74
0.2939,0.0669,-0.1138,-29.39,-32.317,-31.585,0.3222,100767.47
0.3491,-0.0029,-0.3491,-38.11,-39.939,3.11,0.4937,100767.66
0.9219,0.106,-0.5107,-9.573,-17.134,30.732,1.0592,100767.53
1.0537,-0.0049,-0.4863,-24.695,-6.159,30.244,1.1605,100767.7
1.5278,-0.27,-0.8726,-38.537,22.378,9.756,1.78,100766.71
1.5176,0.021,-0.8296,21.585,-13.11,14.39,1.7297,100766.83
1.5239,0.4639,0.0127,-30.305,-17.561,6.524,1.593,100766.79
1.3257,-0.1997,0.2549,-146.159,-3.049,-12.988,1.3647,100765.91
1.021,-0.5293,-0.3521,-75.793,-42.988,15.427,1.2027,100766.23
0.8491,-0.0176,-0.4526,49.268,-1.341,32.073,0.9624,100766.11
1.019,0.3203,-0.3931,89.817,56.707,6.28,1.1382,100765.79
0.647,0.0737,-0.3135,36.951,5.915,7.561,0.7227,100764.68
0.2642,-0.2041,-0.2969,27.012,-44.695,5.305,0.4467,100763.96
0.1792,-0.061,-0.1558,70.244,-11.22,-12.378,0.2452,100764.78
0.2417,-0.0376,-0.2134,87.439,6.037,1.22,0.3246,100765.02
0.4966,-0.1206,-0.3647,68.293,-3.232,8.963,0.6278,100766.3
0.8076,-0.3389,-0.6548,55.549,8.049,5.976,1.0935,100765.55
1.4912,-0.5503,-0.7495,81.89,25.915,-15.793,1.7574,100766.95
1.5845,-0.144,-0.6948,40.61,13.963,-36.463,1.7361,100767.02
1.374,-0.3154,-0.772,-45.305,-24.817,-12.622,1.6073,100766.83
1.668,-0.3086,0.0962,-22.317,25.854,-12.988,1.699,100766.43
1.2959,0.1187,0.1841,-21.585,1.159,-10.671,1.3143,100766.52
0.9927,0.0991,-0.0703,-6.098,-33.354,22.866,1.0001,100766.7
0.8262,-0.104,-0.0312,13.537,15.854,37.622,0.8333,100766.35
0.958,-0.4341,-0.5771,6.402,39.573,0.366,1.1997,100765.72
0.6475,-0.1733,-0.4512,23.232,16.524,-30.061,0.808,100765.61
0.5181,0.0732,-0.1221,-14.451,-10.244,-45.976,0.5373,100765.04
0.3936,-0.1772,-0.25,-50.244,-49.512,-28.841,0.4988,100765.73
0.3496,-0.0918,-0.29,-17.195,-54.512,-8.78,0.4634,100765.27
0.7383,0.0059,-0.4072,-0.671,-43.902,24.146,0.8432,100765.39
0.9551,-0.144,-0.4849,-36.768,-25.854,51.768,1.0807,100766.25
1.5439,-0.4365,-0.979,-87.134,29.085,29.451,1.8796,100766.02
1.2695,0.0117,-0.8643,-16.951,-10.488,-0.427,1.5358,100765.6
1.4229,0.5176,0.1191,-28.72,0.915,-21.098,1.5187,100764.91
1.2212,-0.4487,0.1172,-133.049,9.634,-42.744,1.3063,100765.38
1.0127,-0.0371,-0.5435,47.378,4.39,48.72,1.1499,100765.38
0.8359,0.2876,-0.5015,60.488,35.0,12.866,1.0164,100765.74
0.3965,0.1606,-0.4038,-5.793,-21.951,8.049,0.5883,100765.02
0.1787,-0.0142,-0.2856,-7.561,-58.841,27.134,0.3372,100764.24
0.2817,-0.2495,-0.2524,15.976,-2.073,15.732,0.4532,100764.41
0.4932,-0.29,-0.3164,54.329,14.939,16.463,0.6538,100765.25
0.7241,-0.2256,-0.6675,51.707,-26.829,8.476,1.0103,100765.14
1.2646,-0.1133,-0.9409,35.976,16.829,-34.268,1.5803,100765.44
1.4429,-0.2407,-0.6836,40.183,38.293,-11.098,1.6147,100764.19
1.1587,-0.123,-0.8467,22.134,-17.927,11.341,1.4403,100765.2
1.4922,-0.4536,-0.5508,-9.207,-7.317,-34.695,1.654,100765.61
1.332,-0.0928,0.1733,24.024,6.22,-51.585,1.3465,100764.56
1.0552,0.1621,-0.1064,3.72,-14.207,-9.939,1.0728,100764.4
1.1562,0.0771,-0.3594,4.817,-24.329,10.549,1.2133,100764.27
0.7334,-0.0264,-0.2964,12.561,-22.134,3.049,0.7915,100765.02
0.4312,-0.2515,-0.2368,0.915,-5.122,9.024,0.5525,100764.73
0.3174,-0.2285,-0.1191,-15.366,18.232,6.646,0.4088,100764.52
0.4067,-0.1685,-0.2554,-39.146,52.927,-12.561,0.5089,100765.1
0.5161,-0.0649,-0.5288,-30.0,17.866,-16.707,0.7418,100766.15
0.7275,0.0952,-0.667,5.793,12.866,12.317,0.9916,100766.32
1.0068,-0.0698,-0.4941,-8.72,31.463,42.683,1.1237,100766.08
1.4395,-0.2803,-0.6201,-68.354,23.537,10.366,1.5922,100766.16
1.6064,-0.3062,-0.8345,-54.573,12.073,-3.963,1.836,100766.2
1.5771,0.3794,0.0327,-1.159,22.317,12.073,1.6225,100764.88
1.2051,0.0166,0.2446,-98.232,1.585,-37.622,1.2298,100765.15
0.8364,-0.5654,-0.2485,-50.305,-14.146,-8.049,1.0398,100764.47
1.0068,-0.0708,-0.4058,69.39,6.159,41.89,1.0878,100764.7
1.0327,0.1934,-0.5015,63.841,18.11,19.207,1.1642,100764.13
0.6157,0.1328,-0.3311,22.805,-10.427,9.512,0.7116,100764.08
0.3364,-0.063,-0.2388,3.11,-58.537,22.744,0.4173,100763.55
0.147,-0.1162,-0.2241,26.28,-51.524,19.207,0.2921,100763.68
0.2344,-0.1001,-0.2725,46.28,-35.366,5.61,0.3731,100764.23
0.584,-0.2358,-0.6885,50.793,-41.098,-15.915,0.9331,100764.29
1.2769,-0.3013,-0.7607,42.256,25.976,-26.829,1.5165,100764.94
1.54,-0.4434,-0.6787,38.415,28.476,-19.756,1.7404,100764.81
1.2358,0.0444,-0.7256,29.146,-27.317,-12.195,1.4338,100764.34
1.7563,-0.4258,-0.6558,-57.744,1.037,-18.049,1.9225,100763.88
1.4595,0.0186,0.1919,-45.793,1.768,-26.524,1.4722,100764.14
0.8535,0.0205,0.062,-42.5,-32.683,8.963,0.856,100763.85
0.6777,-0.1387,-0.125,-2.256,-19.39,25.427,0.703,100764.24
0.6792,-0.2749,-0.5396,24.085,9.146,20.915,0.9099,100764.66
0.6753,-0.127,-0.5068,69.878,19.939,14.207,0.8538,100764.48
0.4526,0.082,-0.2085,20.122,-3.537,-10.0,0.5051,100764.96
0.186,-0.022,-0.2505,-48.537,-4.146,-29.634,0.3128,100765.7
0.4517,-0.084,-0.5459,-27.866,13.049,-19.634,0.7135,100766.01
0.9336,-0.1504,-0.6978,12.317,29.207,-9.39,1.1752,100765.63
1.2422,-0.1768,-0.7046,-8.232,30.793,-0.366,1.439,100764.35
1.3906,-0.1538,-1.0005,-35.427,-5.61,14.695,1.72,100763.77
1.6997,0.1113,-0.4009,2.012,11.341,23.902,1.7499,100764.45
1.4683,-0.1099,0.2412,-69.207,11.89,-12.134,1.492,100764.8
0.9199,-0.498,-0.0439,-91.829,-12.927,-26.037,1.047,100764.48
1.0259,-0.1953,-0.4146,-13.72,19.146,-11.829,1.1236,100764.72
1.0752,0.1836,-0.2705,35.305,33.293,1.524,1.1238,100764.65
0.5728,0.0947,-0.2275,7.317,-13.415,38.232,0.6235,100764.85
0.1011,-0.2451,-0.2754,-19.451,-51.951,55.976,0.3823,100764.38
0.0508,-0.1147,-0.165,-11.098,-34.085,38.049,0.2073,100764.54
0.3745,0.0254,-0.3081,-17.073,-21.646,32.988,0.4856,100764.63
0.6235,-0.2324,-0.8403,-4.878,-28.78,21.22,1.0719,100765.09
1.2588,-0.2954,-1.1787,50.244,10.244,-42.073,1.7496,100766.05
1.5552,0.0415,-0.6802,101.463,31.585,-68.476,1.6979,100767.02
1.3237,-0.043,-0.7363,51.28,-43.354,-25.305,1.5154,100766.88
1.4717,-0.3711,-0.7803,0.427,-56.646,5.061,1.7066,100766.39
1.3164,-0.2412,0.1812,-4.085,4.512,11.402,1.3505,100766.78
0.9897,-0.1089,0.1133,-33.598,11.341,-0.305,1.0021,100765.32
0.9429,-0.0874,-0.2676,11.341,32.317,-11.098,0.984,100764.62
0.9077,-0.1211,-0.4741,46.89,26.707,17.439,1.0312,100764.34
0.4175,-0.3169,-0.4941,30.183,-8.659,27.439,0.7203,100764.52
0.2959,-0.0527,-0.0591,-26.646,-8.963,-12.5,0.3063,100764.02
0.5029,0.0815,-0.0991,-104.695,-26.098,-21.707,0.519,100764.4
0.4263,-0.0166,-0.4409,-104.329,-23.537,-5.061,0.6135,100764.56
0.6558,-0.0879,-0.7227,-27.927,-5.305,7.622,0.9798,100764.43
0.916,0.125,-0.752,24.634,0.244,8.963,1.1917,100764.94
1.1016,-0.3716,-1.0205,-20.061,10.183,2.134,1.5469,100765.2
1.2871,-0.4585,-1.0693,35.061,29.39,-17.5,1.735,100765.4
1.8594,0.4282,-0.4404,97.5,38.293,-6.037,1.9582,100764.94
1.7002,0.3652,0.1992,-81.28,-1.768,-16.463,1.7504,100765.44
0.7466,-0.3213,0.0039,-138.171,-55.61,11.829,0.8128,100765.22
0.522,-0.4868,-0.4448,-60.549,-19.512,36.402,0.841,100765.03
0.7441,-0.23,-0.5371,15.732,38.963,-7.195,0.9461,100764.66
0.7251,0.2476,-0.377,85.061,62.744,-28.72,0.8539,100764.62
0.6689,0.3857,-0.3491,70.183,29.329,12.134,0.8474,100764.81
0.3335,-0.04,-0.229,9.939,-17.927,31.098,0.4065,100764.73
0.2319,-0.1562,-0.23,-1.585,-44.329,20.976,0.3621,100766.38
0.4268,-0.1406,-0.5112,-9.756,-35.061,14.146,0.6806,100767.13
0.8418,-0.418,-0.9395,-1.707,11.768,-8.293,1.3289,100765.98
1.4424,-0.25,-0.9092,69.878,52.012,-30.549,1.7232,100766.23
1.5098,-0.0049,-0.4897,85.793,37.683,-10.122,1.5872,100766.05
1.0205,-0.1533,-0.7764,-27.744,-24.024,-21.463,1.2914,100765.55
1.6885,-0.5005,-0.791,-19.207,-8.049,-34.024,1.9306,100765.41
1.4429,0.145,0.2715,70.854,33.049,10.122,1.4753,100765.79
0.7646,0.1323,0.1934,33.476,-6.768,40.915,0.7997,100765.36
0.7964,-0.0713,-0.0981,-9.085,9.634,30.671,0.8056,100764.91
0.9629,-0.2637,-0.522,-27.256,13.232,0.244,1.1266,100764.8
0.6313,-0.228,-0.4414,-2.805,-25.549,2.683,0.8034,100764.62
0.2861,-0.0229,-0.1069,-23.841,-46.037,4.207,0.3063,100765.21
0.332,0.0073,-0.083,-76.646,-34.878,-9.207,0.3423,100765.54
0.2124,-0.1123,-0.4062,-62.927,-24.878,2.195,0.472,100765.54
0.5586,-0.04,-0.6445,-1.707,-0.61,19.451,0.8538,100765.28
1.0078,0.0337,-0.7681,-20.61,16.707,17.073,1.2676,100765.97
1.3433,-0.4219,-0.9253,-88.963,28.963,-11.098,1.6848,100765.48
1.2886,-0.2388,-1.0674,-17.195,14.329,-4.756,1.6902,100766.24
1.6143,0.4736,-0.6128,26.524,8.537,20.915,1.7904,100764.95
1.5469,0.0674,0.2979,-105.122,10.976,-13.293,1.5767,100764.85
1.0513,-0.5171,-0.1069,-127.195,-21.524,-7.683,1.1764,100765.02
0.9302,-0.2637,-0.2905,-39.207,8.476,16.098,1.0095,100765.27
0.8413,-0.0801,-0.4751,11.89,49.512,4.878,0.9695,100764.85
0.9351,0.1924,-0.5459,67.439,68.11,6.585,1.0997,100765.24
0.8916,0.2705,-0.4683,54.634,20.0,18.354,1.0428,100763.96
0.418,0.0869,-0.3096,24.756,-32.622,9.634,0.5273,100763.73
0.2632,-0.1045,-0.2295,39.39,-35.305,22.134,0.3645,100764.07
0.2153,-0.127,-0.1753,64.451,-44.878,20.976,0.3053,100764.31
0.9785,-0.4248,-0.6509,52.805,-16.646,-16.829,1.2496,100763.42
1.5679,-0.1084,-0.644,53.963,39.817,-50.915,1.6985,100763.45
1.436,-0.0845,-1.1104,-17.5,34.085,-18.293,1.8172,100763.72
1.4019,0.1343,0.2183,52.256,18.049,4.695,1.4251,100763.69
0.8252,0.1426,0.1577,22.744,-6.463,21.829,0.8521,100763.78
0.8174,0.0386,-0.0112,12.988,10.732,-1.89,0.8184,100764.7
0.8945,-0.1182,-0.2329,5.488,19.39,-16.585,0.9319,100764.55
0.6582,-0.3071,-0.3628,18.598,-4.878,1.463,0.8119,100763.45
0.4961,-0.2617,-0.2646,10.0,-5.732,3.11,0.6202,100763.72
0.2915,-0.1191,-0.3271,-20.549,-20.366,-31.159,0.4541,100764.55
0.3027,0.1138,-0.4839,-0.488,-15.183,-28.902,0.582,100764.42
0.7305,-0.001,-0.4414,17.317,13.232,11.829,0.8535,100764.59
1.2939,-0.2876,-0.4766,-20.427,41.463,10.488,1.4086,100764.34
1.5889,-0.293,-0.9473,-54.451,20.732,-21.402,1.8729,100765.73
1.6558,0.0659,-0.9795,33.537,3.232,-11.037,1.9249,100764.83
1.6465,0.4067,0.0923,28.963,-11.829,4.756,1.6985,100764.65
1.0356,-0.1689,0.519,-116.829,-34.817,-23.72,1.1707,100764.64
0.6914,-0.4004,-0.0903,-108.354,-24.268,-5.0,0.8041,100763.65
0.9111,-0.0874,-0.5669,-11.463,8.841,-10.488,1.0766,100764.23
0.7148,0.228,-0.5093,76.037,17.5,-11.89,0.9068,100763.95
0.4927,0.1763,-0.3652,65.427,-15.427,29.268,0.6381,100764.11
0.2764,-0.1216,-0.1885,19.878,-42.622,38.476,0.3559,100763.59
0.2505,-0.0112,-0.1475,-0.122,-39.268,16.402,0.2909,100764.57
0.4985,-0.2104,-0.4995,-28.049,-28.293,2.927,0.7364,100764.34
0.6704,-0.3311,-0.7852,-2.683,12.256,-19.573,1.0842,100764.27
1.3872,-0.0659,-0.8438,47.5,37.195,-33.293,1.625,100764.96
1.5107,-0.0044,-0.5332,74.573,25.61,-1.22,1.6021,100765.1
1.1025,-0.1909,-0.9121,24.878,-5.122,12.744,1.4436,100764.74
1.7485,-0.3442,-0.5591,26.707,19.085,2.561,1.8677,100765.82
1.4062,0.1938,0.3296,29.146,22.988,4.939,1.4573,100764.78
0.7329,0.0171,0.001,-29.695,1.402,20.61,0.7331,100765.12
0.8247,0.0332,-0.1709,20.427,32.744,3.659,0.8429,100764.62
1.0127,-0.0498,-0.3926,37.317,41.829,-5.366,1.0873,100764.12
0.9507,-0.2163,-0.4722,11.707,15.793,2.988,1.0833,100764.88
0.4854,-0.1763,-0.2534,-16.098,-19.939,-7.5,0.5752,100764.34
0.2764,-0.0244,-0.1641,-37.134,-18.11,-24.756,0.3223,100765.28
0.3916,-0.0938,-0.2627,-42.744,-5.915,-9.634,0.4808,100764.76
0.5996,-0.1099,-0.4404,-18.354,10.183,12.5,0.7521,100764.98
0.9731,-0.085,-0.4229,-24.634,33.11,13.537,1.0644,100764.89
1.5405,-0.186,-0.603,-49.146,58.11,5.244,1.6648,100765.21
1.5742,-0.0024,-0.873,-20.488,27.012,15.793,1.8001,100765.55
1.5005,0.2671,-0.0845,-17.805,27.256,8.11,1.5264,100765.44
1.2788,-0.022,0.5142,-70.0,19.268,-51.646,1.3785,100765.87
0.9136,-0.3193,0.1689,-29.268,-8.476,-19.268,0.9824,100765.67
1.0049,-0.1665,-0.3071,32.927,26.524,22.866,1.0639,100765.3
0.9829,0.1333,-0.3862,54.329,37.744,-7.012,1.0645,100766.38
0.6089,0.0884,-0.2417,17.744,-2.012,5.366,0.661,100765.83
0.3379,-0.1187,-0.1846,-13.293,-35.732,21.829,0.4029,100765.89
0.3257,-0.0801,-0.1772,8.11,-29.085,8.171,0.3793,100765.59
0.4741,-0.0845,-0.2607,40.122,-24.512,11.829,0.5476,100765.35
0.668,-0.2866,-0.416,54.939,-24.085,16.89,0.8375,100765.16
0.9097,-0.1792,-0.5195,58.72,7.927,-6.585,1.0628,100766.4
1.4185,-0.2588,-0.5405,50.488,32.195,-20.183,1.5399,100767.3
1.5576,0.0132,-0.5439,52.073,20.61,-12.561,1.6499,100767.38
1.5806,-0.4185,-0.5728,-0.488,-10.244,-12.927,1.7324,100766.45
1.8428,-0.1709,0.2915,38.049,35.0,-4.146,1.8735,100766.98
0.9468,0.1641,0.5527,-9.085,9.634,15.915,1.1085,100766.66
1.0425,0.0078,0.186,-12.256,13.476,-5.122,1.059,100765.78
1.1045,-0.1738,-0.1987,26.646,21.341,15.244,1.1356,100765.37
0.9932,-0.2568,-0.4531,10.0,-9.39,7.805,1.1215,100765.82
0.5518,0.0356,-0.1387,-25.427,-20.183,-24.817,0.57,100766.52
0.1904,-0.0249,-0.0107,-73.72,-25.061,-19.146,0.1924,100766.31
0.3789,-0.25,-0.2329,-80.366,-15.915,-8.232,0.5102,100765.77
0.5923,-0.1714,-0.332,-28.232,3.293,1.707,0.7003,100765.38
0.8843,0.1055,-0.3076,1.341,3.415,-3.537,0.9422,100766.31
1.314,0.1602,-0.4307,-23.11,-15.61,-3.537,1.392,100766.51
1.4736,-0.2661,-0.7314,-28.415,-16.098,16.524,1.6666,100766.41
1.2485,-0.1572,-0.5303,2.012,-40.915,17.378,1.3656,100766.23
1.3032,0.1802,0.0981,-40.122,-11.463,-12.317,1.3193,100765.84
1.124,-0.2505,0.4429,-100.61,20.305,-65.427,1.2338,100764.81
1.1182,-0.1338,-0.0493,-21.402,23.049,-22.744,1.1272,100764.28
1.3071,0.1973,-0.292,25.488,28.963,9.146,1.3538,100763.77
0.9199,0.2124,-0.3882,24.878,-3.293,4.512,1.0208,100763.63
0.4858,0.0703,-0.2671,-4.573,-22.622,11.951,0.5589,100764.02
0.333,-0.0166,-0.1665,-4.939,-27.561,18.902,0.3727,100764.55
0.2373,-0.0728,-0.1523,34.878,-40.0,25.183,0.2912,100764.22
0.457,-0.1689,-0.3716,75.305,-7.012,30.122,0.6128,100764.46
0.8281,-0.2393,-0.6045,88.11,7.866,-9.146,1.0528,100765.49
1.1118,-0.0493,-0.4404,70.915,20.549,-44.146,1.1969,100765.91
1.334,-0.3057,-0.377,33.72,32.744,-9.512,1.4195,100765.86
1.5151,-0.231,-0.6294,-8.415,12.012,5.488,1.6568,100765.58
1.7808,-0.2974,-0.4409,-45.0,-6.159,-26.707,1.8585,100764.63
1.5107,0.4399,0.4678,11.28,24.817,-6.768,1.6416,100765.63
1.1606,0.3032,0.458,5.61,18.232,57.012,1.2841,100765.4
1.1689,-0.2036,0.0449,-36.89,8.537,59.756,1.1874,100765.35
0.9409,-0.313,-0.6006,-43.171,-9.451,27.988,1.1593,100764.7
0.623,0.0576,-0.3887,16.463,5.305,1.463,0.7366,100765.34
0.2935,0.1646,0.0073,11.341,-0.366,-18.049,0.3365,100765.3
0.2739,-0.0244,-0.104,-33.476,-28.232,-23.902,0.294,100764.79
0.415,-0.1636,-0.2393,-25.854,-28.963,-12.256,0.5062,100764.4
0.7393,-0.1934,-0.3516,3.415,7.927,-3.598,0.8411,100764.11
1.168,0.0122,-0.2759,-9.085,17.317,10.671,1.2002,100764.52
1.4731,-0.0972,-0.6455,-69.207,-12.622,10.488,1.6113,100765.66
1.4399,0.0449,-0.877,-41.463,-16.585,-1.646,1.6866,100766.17
1.3091,0.3472,-0.4087,5.61,-17.561,3.963,1.4147,100765.95
1.4058,0.0566,0.5933,-55.366,15.183,-36.89,1.5269,100765.89
0.9746,-0.3521,0.3706,-38.293,10.793,-81.341,1.1005,100765.6
1.0337,-0.0986,-0.1665,32.012,15.427,6.22,1.0517,100765.52
1.2139,0.0737,-0.3926,35.732,7.866,40.61,1.2779,100764.83
0.8052,-0.0249,-0.4233,22.378,3.11,-0.244,0.91,100764.55
0.3149,-0.0513,-0.2441,36.707,-9.39,5.793,0.4018,100763.99
0.3213,0.0312,-0.124,53.232,4.268,8.659,0.3458,100763.69
0.4072,-0.0918,-0.1655,82.134,13.293,11.159,0.4491,100764.33
0.6406,-0.1177,-0.332,90.244,14.817,13.11,0.7311,100764.19
1.0381,-0.1948,-0.4609,50.793,-5.366,-3.72,1.1524,100763.83
1.1768,-0.4536,-0.5029,37.5,-4.451,-1.402,1.3577,100763.19
1.5693,-0.1919,-0.3574,20.183,37.744,1.28,1.6209,100763.7
1.6167,0.0688,-0.6943,-51.341,-35.0,-34.146,1.7608,100763.1
1.6504,-0.2207,-0.0791,-7.012,-9.634,-29.573,1.667,100763.62
0.9126,0.2573,0.8428,74.817,53.171,34.695,1.2686,100764.28
0.7759,0.1855,0.377,0.61,19.268,28.415,0.8823,100764.52
1.1567,-0.2476,-0.3257,-46.89,12.805,-1.037,1.2269,100764.22
1.0596,-0.1992,-0.416,14.634,36.829,-3.598,1.1556,100764.09
0.668,-0.0586,-0.1465,14.817,-6.341,-8.11,0.6863,100764.64
0.3096,-0.0889,-0.0308,-46.585,-34.146,-22.439,0.3235,100764.79
0.3696,0.0068,-0.1909,-57.134,-36.037,-26.463,0.4161,100764.17
0.812,0.0767,-0.5146,-16.768,-15.61,-0.183,0.9644,100764.57
0.9575,-0.0161,-0.3145,9.329,4.268,9.146,1.008,100764.11
1.1846,-0.0625,-0.3394,-33.659,-10.061,-0.732,1.2338,100763.9
1.5933,0.2539,-0.4814,-16.037,-13.476,-19.024,1.6837,100763.98
1.2285,0.1841,0.5581,-39.512,22.805,-24.024,1.3618,100763.8
0.7744,-0.4741,0.4155,-60.0,10.305,-10.61,0.9986,100764.88
0.8608,-0.2729,-0.1626,-7.073,28.171,12.439,0.9176,100764.71
1.3193,0.1831,-0.4697,3.902,50.976,9.024,1.4124,100764.24
0.9214,0.1421,-0.3657,-5.427,17.683,-2.5,1.0014,100764.12
0.4102,-0.0049,-0.1357,12.378,-4.634,8.232,0.4321,100764.17
0.2451,-0.0713,-0.0571,32.317,11.768,18.902,0.2616,100764.09
0.6016,-0.1494,-0.1694,37.439,31.159,26.585,0.6426,100764.39
1.0015,-0.1792,-0.4233,38.354,7.927,18.049,1.1019,100764.73
1.1792,-0.1665,-0.457,54.329,-21.341,8.354,1.2756,100765.12
1.231,-0.0366,-0.189,59.878,3.11,20.976,1.2459,100765.77
1.48,-0.1328,-0.3125,0.793,-5.244,-5.793,1.5184,100765.66
1.6797,-0.4487,-0.2642,-45.183,-36.89,-21.524,1.7585,100765.8
1.4517,-0.1138,0.4932,0.366,16.524,-11.037,1.5374,100764.55
0.8828,0.519,0.4795,24.634,5.732,24.085,1.1308,100764.23
1.0957,0.1421,-0.1245,-5.427,0.854,16.524,1.1119,100763.88
1.0308,-0.2969,-0.4038,11.463,10.244,10.854,1.1462,100764.96
0.4854,-0.2046,-0.2241,36.646,-17.683,7.378,0.5724,100764.8
0.3228,-0.0376,-0.0205,-11.89,-42.805,-33.598,0.3256,100764.8
0.2466,-0.0142,-0.042,-45.915,-52.744,-51.524,0.2505,100764.3
0.5376,0.0781,-0.2529,-18.537,-23.78,-28.11,0.5992,100764.79
0.8896,0.001,-0.4995,2.988,-11.037,10.0,1.0203,100766.14
1.1284,-0.2349,-0.499,-17.073,-18.537,8.171,1.256,100765.05
1.3872,-0.0654,-0.4409,-32.988,11.524,16.951,1.4571,100764.98
1.4575,0.0405,-0.8721,-48.354,-26.707,-13.659,1.699,100765.18
1.5737,0.3877,-0.3872,-22.683,-37.683,-14.451,1.6664,100764.72
1.4351,0.063,0.5112,-56.28,-0.244,-14.695,1.5247,100763.75
1.0229,-0.4214,0.3535,-51.463,-4.817,-6.402,1.1614,100763.52
1.0767,-0.1846,-0.2441,-13.476,13.902,23.902,1.1193,100763.7
1.0278,0.2261,-0.5142,12.134,25.549,6.341,1.1713,100763.23
0.7466,0.082,-0.4199,12.988,4.756,15.854,0.8605,100763.64
0.3975,-0.0752,-0.1611,13.293,-17.073,20.915,0.4354,100764.18
0.1675,0.0542,-0.0542,26.159,-7.195,10.671,0.1842,100763.58
0.4487,-0.0679,-0.2085,29.39,1.707,18.476,0.4994,100764.25
0.7261,-0.2173,-0.5879,40.305,12.073,22.256,0.9592,100764.27
1.1533,-0.2544,-0.6299,67.866,21.463,-1.341,1.3385,100765.38
1.2715,-0.0942,-0.1787,78.171,8.232,-0.732,1.2874,100764.39
1.4414,-0.1943,-0.4458,-1.098,-8.963,4.207,1.5212,100764.86
1.6401,-0.4272,-0.5005,-38.232,-48.049,-6.646,1.7672,100764.6
1.2368,0.0649,0.4868,28.72,22.5,-12.073,1.3308,100763.69
1.0601,0.5659,0.5659,-0.915,40.732,3.232,1.3283,100763.73
1.4312,-0.002,-0.2222,-53.232,41.159,15.183,1.4483,100763.26
1.0923,-0.3042,-0.501,-4.634,28.354,28.293,1.2396,100764.14
0.3364,-0.1997,-0.1489,25.61,10.061,9.756,0.4186,100765.06
0.4487,0.0371,-0.0986,-17.561,-0.671,-34.329,0.4609,100764.88
0.6699,0.1016,-0.2666,-55.366,-18.72,-22.805,0.7281,100765.61
0.3223,-0.0908,-0.2847,-27.927,-5.366,7.073,0.4395,100764.93
0.6396,0.0073,-0.2241,0.061,0.183,-4.207,0.6778,100764.9
0.9385,-0.0815,-0.1909,-15.854,7.622,-0.488,0.9612,100765.13
1.5293,-0.249,-0.3257,-44.756,33.476,15.0,1.5833,100764.55
1.7866,-0.1562,-0.7632,-59.39,6.89,-4.817,1.9491,100764.99
1.3882,0.2676,-0.4775,-34.634,-46.524,-13.72,1.4922,100764.59
1.2822,0.3154,0.5127,-56.341,14.939,-26.524,1.4165,100763.8
0.9575,-0.2603,0.5513,-52.073,5.732,-46.646,1.1351,100764.2
0.6963,0.0776,-0.3291,30.488,3.902,15.183,0.7741,100765.05
0.5103,-0.0688,-0.2837,14.024,-14.085,11.524,0.5879,100764.87
0.2954,0.0664,-0.1348,40.0,-49.329,5.183,0.3314,100764.0
0.396,-0.0039,-0.1343,54.268,-38.049,18.659,0.4182,100764.22
0.7363,-0.3691,-0.2539,54.634,-11.159,27.927,0.8619,100764.01
0.9673,-0.3232,-0.5293,47.439,-23.537,-12.134,1.149,100764.09
1.0938,-0.1733,-0.542,45.732,-26.829,-13.598,1.2329,100764.79
1.3706,-0.2524,-0.5029,31.463,-5.0,11.829,1.4816,100765.41
1.5405,-0.1064,-0.564,-6.159,0.122,-20.305,1.644,100765.4
1.6406,-0.2871,-0.2261,-12.256,-19.268,-36.768,1.6808,100765.25
1.2578,0.2456,0.4868,40.366,4.695,0.61,1.3709,100765.64
0.6904,0.1533,0.2759,7.683,13.72,30.305,0.7592,100766.43
1.0156,-0.2217,-0.2158,-14.817,41.585,11.768,1.0617,100767.02
1.1025,-0.1904,-0.4321,9.573,14.024,-1.646,1.1994,100766.86
0.4219,-0.0503,-0.2246,8.72,-33.659,1.341,0.4806,100767.2
0.189,-0.0542,-0.0747,-36.341,-32.744,-12.561,0.2103,100767.1
0.2095,-0.0366,-0.1479,-54.756,-32.927,-16.159,0.2591,100767.4
0.5884,-0.0293,-0.4121,-42.805,-5.244,-6.829,0.7189,100767.49
1.123,0.0127,-0.543,-31.585,19.329,-6.524,1.2475,100768.05
1.4668,-0.1685,-0.6143,-63.963,4.512,-1.89,1.5991,100767.99
1.5044,-0.2153,-0.6548,-36.524,19.512,32.866,1.6548,100767.81
1.3643,0.0552,-0.6289,5.305,-7.256,31.707,1.5033,100766.05
1.7295,0.3462,0.2231,-25.915,20.549,-26.341,1.7779,100765.73
0.7837,-0.1855,-0.1279,-50.61,-27.073,-11.28,0.8155,100766.07
0.9966,-0.0537,-0.314,16.098,47.317,28.598,1.0462,100765.77
1.0073,0.2324,-0.3916,48.598,53.354,5.305,1.1055,100766.75
0.7651,0.1162,-0.4043,15.183,-8.293,-0.671,0.8732,100766.28
0.3452,-0.085,-0.2197,11.159,-46.22,10.732,0.4179,100766.04
0.2124,-0.0991,-0.1377,27.378,-42.134,25.366,0.2718,100765.73
0.3037,-0.085,-0.1743,51.159,-34.451,35.61,0.3603,100766.38
0.4844,-0.0571,-0.3394,45.915,-33.78,18.476,0.5942,100767.34
1.1807,-0.3799,-0.6035,36.646,25.061,-12.622,1.3793,100767.45
1.9717,-0.1904,-0.5825,65.427,40.061,-20.915,2.0647,100766.8
1.2114,0.2427,-0.915,-17.744,-51.402,-9.573,1.5374,100767.68
1.5234,-0.5679,-0.623,-47.012,-0.366,-9.085,1.7411,100766.97
1.626,0.2344,0.5249,47.5,23.11,-6.402,1.7246,100766.81
0.7876,0.4214,0.2051,13.963,-31.341,-2.073,0.9165,100767.91
0.9375,0.0591,-0.1323,29.695,25.366,-1.829,0.9486,100767.02
0.9365,-0.2529,-0.3345,55.732,51.89,17.317,1.0261,100766.48
0.9424,-0.354,-0.4536,42.012,32.683,2.378,1.1042,100766.32
0.5874,-0.1387,-0.2261,7.5,-1.89,-23.354,0.6445,100766.06
0.3369,0.0229,-0.0811,-41.524,-21.463,-29.756,0.3473,100766.13
0.4272,-0.1289,-0.231,-65.671,-19.085,-6.463,0.5025,100766.3
0.7178,0.0312,-0.4209,-34.39,-25.0,5.122,0.8327,100765.93
0.9038,0.1445,-0.4517,-27.012,-25.854,9.268,1.0207,100766.25
1.4668,-0.1519,-0.5947,-41.829,-6.341,18.537,1.59,100765.91
1.5938,-0.2793,-0.8696,-8.232,-7.561,30.854,1.8369,100766.27
1.2905,0.2563,-0.4819,13.415,-38.963,36.829,1.4012,100766.65
1.3311,0.1743,0.2954,-85.122,-13.354,-28.841,1.3745,100767.18
1.0601,-0.5127,0.0635,-115.915,-0.122,-32.988,1.1792,100766.96
0.856,-0.3594,-0.3159,-24.512,6.646,13.902,0.9806,100766.45
0.9199,0.2881,-0.2832,76.22,56.89,13.598,1.0047,100766.91
0.668,0.4609,-0.3125,71.159,34.451,28.232,0.8697,100765.66
0.4492,-0.0225,-0.3433,5.427,-30.427,31.341,0.5658,100766.31
0.2739,-0.3867,-0.27,16.829,-36.707,12.805,0.5454,100766.31
0.1694,-0.1094,-0.0488,47.012,-17.012,14.024,0.2075,100765.59
0.5181,-0.2148,-0.4233,-1.463,-22.378,14.268,0.7027,100766.26
1.1104,-0.4321,-0.8574,5.854,43.354,-19.512,1.4679,100766.88
1.5669,0.2925,-0.7783,53.72,-13.232,-16.524,1.7738,100766.76
1.3423,-0.3394,-0.7134,-6.89,-28.476,-2.378,1.5575,100766.9
1.4116,-0.3789,0.373,65.427,25.549,-12.622,1.5084,100766.26
0.959,0.4053,0.5713,60.549,27.866,-23.171,1.1875,100765.43
1.2241,0.1909,-0.0444,-5.488,32.5,-4.573,1.2397,100765.79
1.2192,-0.2739,-0.3892,0.793,31.646,35.732,1.3088,100765.79
0.6592,-0.3696,-0.3774,4.634,-7.683,28.232,0.8448,100765.44
0.1899,-0.0757,-0.085,-27.683,-19.329,-18.598,0.2214,100765.67
0.291,0.0239,-0.1064,-73.598,-9.451,-47.073,0.3108,100767.32
0.4844,-0.0122,-0.2617,-70.61,0.366,-19.939,0.5507,100766.83
0.7812,0.0063,-0.4644,-27.5,12.134,18.963,0.9089,100765.98
1.0156,0.0654,-0.4771,-17.256,-15.122,8.232,1.124,100766.19
1.2651,-0.168,-0.5264,-46.951,-22.439,0.732,1.3805,100765.74
1.5439,-0.3335,-0.7476,-15.427,-1.098,19.085,1.7475,100766.64
1.4238,0.2637,-0.4702,33.659,-13.232,13.171,1.5225,100766.22
1.3477,0.3433,0.2788,-37.866,-4.329,-27.012,1.4184,100765.53
0.9165,-0.3555,0.165,-82.256,-35.732,-23.963,0.9968,100764.76
1.0151,-0.3794,-0.0669,-39.634,9.939,19.573,1.0858,100765.02
1.3203,0.0786,-0.355,2.622,51.22,-14.512,1.3695,100764.49
1.0923,0.4668,-0.4585,41.037,31.89,4.207,1.2733,100765.47
0.5391,-0.1304,-0.4087,12.927,-24.634,36.159,0.6889,100765.21
0.2266,-0.1216,-0.1699,34.329,-31.28,2.195,0.3082,100765.5
0.2319,0.0723,-0.084,35.854,-34.756,7.805,0.257,100765.98
0.4971,-0.1436,-0.3281,24.451,-33.415,27.195,0.6127,100765.95
0.6504,-0.3706,-0.5059,48.841,-19.573,21.829,0.9035,100766.67
1.001,-0.2979,-0.5083,67.195,9.756,-6.951,1.1615,100767.59
1.7505,0.0698,-0.6768,50.366,57.927,-25.305,1.8781,100767.79
1.5254,-0.0742,-0.9536,-28.598,-44.024,-10.122,1.8005,100768.66
1.4795,-0.731,-0.2905,35.244,-7.622,-14.878,1.6756,100768.84
1.0142,0.4575,0.627,117.195,27.5,10.366,1.2771,100768.83
0.8252,0.3257,0.1914,3.415,3.659,7.805,0.9076,100767.96
1.2661,-0.1963,-0.3066,-25.854,34.024,-18.049,1.3174,100767.55
1.2666,-0.2964,-0.6519,9.756,27.5,5.976,1.455,100767.25
0.6182,-0.2852,-0.3691,16.89,-9.756,5.366,0.7744,100766.55
0.2715,-0.0137,-0.0508,-19.207,-9.207,-34.085,0.2765,100766.52
0.3682,-0.0415,-0.106,-65.671,1.768,-41.646,0.3853,100767.08
0.4561,-0.1045,-0.2793,-54.268,-10.671,-10.854,0.5449,100767.39
0.5361,0.0303,-0.4243,-22.195,-16.159,4.756,0.6844,100767.87
1.2656,0.0786,-0.4351,-19.024,18.78,2.256,1.3406,100768.09
1.7559,-0.2612,-0.5293,-41.768,30.0,27.988,1.8524,100768.15
1.1367,-0.1118,-0.9551,-39.756,-41.951,6.463,1.4889,100767.71
1.4473,0.2788,-0.4634,-4.573,-9.268,-5.366,1.545,100767.63
1.4287,0.0449,0.4229,4.756,53.11,-37.744,1.4906,100766.57
0.792,-0.0273,0.5166,16.524,-1.707,-30.366,0.946,100767.26
0.875,-0.1152,-0.1431,-30.0,-2.378,8.293,0.8941,100767.42
1.1782,-0.0464,-0.5654,-20.183,52.927,-2.439,1.3077,100767.77
0.9814,0.0981,-0.439,5.122,34.756,11.22,1.0796,100767.54
0.4487,-0.0234,-0.1909,10.61,-21.768,23.841,0.4882,100767.62
0.3384,0.0181,-0.105,22.317,-10.793,8.293,0.3548,100767.57
0.5825,-0.0249,-0.1851,14.939,8.415,20.244,0.6117,100766.54
0.6304,-0.2876,-0.3413,18.11,-22.866,37.622,0.7724,100766.74
0.6587,-0.2617,-0.4526,40.366,-19.268,28.72,0.841,100767.03
1.2251,-0.0474,-0.4189,36.951,13.537,2.561,1.2956,100767.6
1.7065,-0.1226,-0.604,-2.317,-0.183,-38.72,1.8144,100767.54
1.3438,-0.0347,-0.6865,-15.793,-39.329,-27.683,1.5094,100767.0
1.916,-0.3667,-0.0908,-7.866,26.829,-20.915,1.9529,100766.84
1.0566,0.2402,0.5444,49.39,2.195,16.829,1.2127,100766.98
0.6553,0.1587,0.2119,33.232,1.707,6.707,0.7067,100766.48
0.9434,-0.019,-0.0718,30.061,50.122,-3.72,0.9463,100765.74
1.1362,-0.1577,-0.3423,10.0,44.695,13.415,1.1971,100766.16
0.8047,-0.2163,-0.2354,-10.732,0.122,8.537,0.8659,100766.34
0.3813,-0.1177,-0.0728,-35.61,-38.232,-29.695,0.4057,100766.59
0.2769,0.0015,-0.0845,-52.805,-33.659,-31.098,0.2895,100766.79
0.3481,0.0283,-0.2666,-45.427,-12.866,-13.11,0.4394,100766.67
0.7466,0.1157,-0.4731,-26.829,7.195,-7.622,0.8914,100767.58
1.1143,0.0034,-0.5649,-27.805,14.207,3.11,1.2493,100766.16
1.6948,-0.3384,-0.5078,-16.22,32.195,29.39,1.8013,100767.2
1.8589,-0.1436,-0.4775,-5.549,8.476,23.841,1.9246,100767.48
1.4697,0.415,-0.0674,-69.817,-34.756,-9.207,1.5287,100767.7
1.229,-0.0474,0.3579,-125.244,-28.354,-37.744,1.2809,100767.62
0.9531,-0.2251,0.2759,-51.829,-33.415,-17.012,1.0175,100767.42
0.8765,-0.1396,-0.0269,8.78,23.171,27.073,0.8879,100767.05
0.9858,0.0562,-0.3794,36.829,54.756,14.512,1.0578,100767.12
0.8574,0.3779,-0.4268,51.646,13.354,-12.622,1.0296,100766.59
0.3979,0.0674,-0.3037,26.22,-37.622,5.793,0.5051,100766.05
0.2241,-0.1177,-0.2139,34.268,-35.915,10.793,0.3314,100765.53
0.4502,-0.1377,-0.1772,59.878,-11.707,9.146,0.503,100765.63
0.8081,-0.2124,-0.3271,48.659,-0.366,5.671,0.8973,100765.34
1.0376,-0.271,-0.5605,27.378,-26.646,-8.537,1.2101,100765.73
0.9692,-0.1118,-0.4961,16.951,-26.22,1.341,1.0945,100767.01
1.3472,-0.1392,-0.4751,-14.146,-2.805,-2.927,1.4353,100767.85
1.4092,0.1367,-0.7876,-14.756,-20.671,-13.963,1.6201,100768.35
1.6821,-0.3296,-0.3203,24.634,17.561,-6.707,1.7438,100767.25
1.4395,0.248,0.5132,50.366,21.89,14.878,1.5482,100767.03
0.8691,0.0688,0.1377,-20.366,-16.402,18.963,0.8827,100767.12
1.0156,0.0557,-0.1875,6.646,16.646,0.549,1.0343,100765.95
1.0698,-0.0493,-0.3657,30.915,20.427,15.366,1.1317,100765.34
0.8535,-0.1899,-0.3633,8.049,-5.0,16.159,0.9469,100764.74
0.4189,-0.2534,-0.1816,-21.89,-8.902,-6.22,0.5222,100764.92
0.3013,-0.0742,-0.1514,-37.927,1.098,-24.878,0.3452,100765.3
0.4082,0.0156,-0.1943,-53.232,1.402,-20.915,0.4524,100765.09
0.5381,0.0024,-0.2925,-59.207,-13.659,0.427,0.6124,100765.41
0.7705,0.043,-0.3608,-59.451,-12.195,15.549,0.8519,100765.79
1.3521,-0.0498,-0.4927,-45.366,7.012,20.183,1.4399,100766.32
1.7666,-0.0356,-0.835,-20.366,12.012,16.585,1.9543,100765.87
1.1821,0.1108,-0.959,5.488,-33.354,19.695,1.5262,100766.01
1.3794,0.3608,0.0571,-11.646,6.22,-2.927,1.427,100766.0
1.043,-0.0679,0.5571,-55.793,-2.683,-48.72,1.1844,100766.72
0.8564,-0.4517,0.127,-17.012,-6.463,6.159,0.9765,100766.64
1.2168,-0.1143,-0.2959,24.329,59.085,27.561,1.2575,100766.59
1.376,0.2773,-0.4868,26.037,60.366,-11.707,1.4857,100766.55
0.8989,0.0234,-0.5513,2.683,-20.671,4.939,1.0548,100766.91
0.4087,-0.1045,-0.3066,24.756,-36.463,6.098,0.5215,100765.93
0.3101,0.0615,-0.0938,53.841,-9.939,-2.012,0.3297,100765.93
0.4028,0.0264,-0.1064,49.268,-22.561,29.695,0.4175,100765.07
0.4204,-0.2388,-0.3242,29.573,-34.512,29.878,0.5821,100766.27
0.7285,-0.2661,-0.4575,42.378,-16.28,6.28,0.9005,100766.19
1.3545,-0.0972,-0.4282,57.622,12.073,1.646,1.4239,100766.25
1.7988,0.0293,-0.8726,-3.72,22.012,-31.159,1.9995,100766.41
1.7085,-0.3389,-0.769,-29.451,-35.061,-24.268,1.904,100765.19
1.5972,-0.1309,0.3237,15.854,-5.549,-8.11,1.6349,100765.5
0.6782,0.4204,0.5,18.232,-13.232,11.28,0.9417,100764.38
0.8208,0.1426,0.0366,3.598,27.012,8.049,0.8339,100764.4
1.3066,-0.1123,-0.3491,10.976,54.756,9.268,1.3571,100764.66
1.0767,-0.1821,-0.4976,12.317,22.317,22.195,1.2,100764.99
0.3145,-0.2202,-0.2202,0.793,-16.037,14.756,0.4426,100764.98
0.1094,-0.061,-0.105,-18.902,-37.805,-18.354,0.1634,100765.58
0.5586,-0.043,-0.3911,-22.256,-4.024,-6.768,0.6833,100765.69
1.0503,-0.1152,-0.4219,-12.195,14.268,-1.341,1.1377,100766.49
1.5859,-0.1567,-0.5918,-27.012,23.354,12.988,1.7,100766.48
1.7412,-0.041,-0.8833,-28.841,20.122,15.0,1.9529,100766.23
1.2212,0.2002,-0.8013,-3.049,-40.549,21.585,1.4743,100765.43
1.6821,0.2378,0.1348,-44.573,5.854,-12.073,1.7042,100765.8
1.0967,-0.1997,0.4746,-76.585,-22.195,-30.366,1.2115,100765.59
0.5806,-0.229,0.1304,-44.146,-35.488,8.72,0.6376,100765.44
1.0376,-0.1343,-0.3301,-11.341,22.256,-12.744,1.0971,100765.81
1.1284,0.1772,-0.4946,52.012,57.744,-15.183,1.2447,100766.47
0.6992,-0.1011,-0.3237,47.317,7.195,33.537,0.7771,100765.62
0.5054,-0.126,-0.165,17.866,-26.159,21.463,0.5464,100764.35
0.4619,0.0762,-0.2344,6.098,-5.488,1.463,0.5235,100764.27
0.5908,-0.0029,-0.3867,22.866,0.305,10.671,0.7061,100764.69
0.6138,-0.0752,-0.4673,59.878,-35.976,20.061,0.7751,100764.52
0.4912,-0.3843,-0.5107,77.134,-59.146,17.317,0.8061,100765.02
0.8823,-0.2656,-0.4175,67.744,-17.988,14.512,1.0116,100765.27
1.4087,-0.1289,-0.5132,-15.793,34.695,-22.256,1.5048,100765.33
1.4941,-0.0005,-1.0186,-2.805,13.232,-51.098,1.8083,100765.62
1.5991,-0.3672,-0.2017,75.0,16.463,-7.195,1.6531,100765.59
1.2773,-0.1323,0.4263,33.963,27.012,-15.305,1.3531,100765.45
0.9482,0.1299,0.1152,-68.963,16.22,-60.0,0.964,100764.88
1.2896,0.1826,-0.25,-15.427,29.878,-22.622,1.3262,100764.66
0.9053,-0.0195,-0.1753,46.646,12.622,70.976,0.9223,100764.76
0.8618,-0.2354,-0.272,0.183,14.085,52.5,0.9339,100764.82
0.6934,-0.2666,-0.3066,-45.0,7.744,-14.146,0.8036,100765.23
0.291,-0.1294,-0.1855,-55.305,-16.951,-30.366,0.3686,100766.05
0.3579,-0.0308,-0.2539,-56.89,-16.341,-23.963,0.4399,100765.42
0.7168,-0.042,-0.4814,-38.598,0.915,-4.634,0.8645,100766.19
0.8604,0.1245,-0.3149,-28.841,-0.61,13.171,0.9246,100766.02
1.1763,-0.106,-0.5063,-83.476,-15.183,12.5,1.285,100766.03
1.3398,-0.2378,-0.6675,-59.573,-17.866,22.439,1.5157,100765.91
1.4258,0.2642,-0.5259,20.122,0.305,20.427,1.5425,100765.3
1.7041,0.312,0.0376,-7.683,18.841,-31.89,1.7328,100764.63
1.1953,-0.3354,0.3105,-51.585,-22.317,-24.207,1.2797,100764.59
0.9971,-0.4131,0.0044,-59.939,-6.098,-11.585,1.0793,100764.34
1.0029,-0.0732,-0.2148,-2.805,37.683,-28.049,1.0283,100763.76
0.7944,0.4424,-0.3301,66.524,43.598,2.683,0.9674,100764.55
0.5859,0.1963,-0.3638,45.366,8.415,52.012,0.7171,100765.03
0.2798,-0.2393,-0.2446,27.683,-24.573,25.61,0.442,100765.14
0.2573,-0.1206,-0.1235,36.341,-31.524,-4.146,0.3099,100765.23
0.4116,-0.1167,-0.2261,35.0,-0.976,-1.159,0.4839,100765.42
0.8691,-0.3247,-0.5947,54.695,18.902,-7.744,1.1021,100764.94
1.3403,-0.0698,-0.4917,96.524,35.488,-9.024,1.4294,100765.82
1.5601,-0.1504,-0.4678,36.037,38.232,-4.085,1.6356,100765.62
1.5117,-0.0991,-0.6885,-13.293,-21.524,-5.427,1.6641,100765.61
1.6299,-0.3652,-0.374,3.476,-7.073,-4.451,1.7117,100765.97
0.7646,0.1909,0.4175,-38.11,1.585,-9.268,0.8919,100766.16
0.8931,0.0298,0.0137,-40.061,12.195,0.427,0.8937,100766.46
1.084,-0.1196,-0.2334,18.841,26.829,32.317,1.1153,100766.47
0.7549,-0.0913,-0.2949,49.634,-0.244,44.573,0.8156,100766.98
0.4531,-0.0527,-0.1768,-2.256,-30.915,2.744,0.4892,100766.23
0.3833,-0.0815,-0.1753,-60.0,-50.244,-46.28,0.4293,100764.82
0.4399,-0.0391,-0.2373,-57.866,-44.024,-35.732,0.5014,100765.5
0.6943,0.1035,-0.3589,-16.89,-17.195,-8.841,0.7884,100765.88
0.8174,0.1147,-0.353,-0.061,-6.037,6.768,0.8977,100765.53
1.4282,-0.1401,-0.5571,-21.28,19.695,15.183,1.5394,100764.04
1.7144,-0.1899,-0.7988,-2.622,38.963,28.293,1.9008,100764.66
1.2217,0.0742,-0.5786,-2.195,-5.854,15.854,1.3538,100764.75
1.5073,0.3052,0.2891,-62.561,37.561,-23.659,1.5648,100765.3
1.0054,-0.2964,0.478,-88.354,27.134,-58.171,1.152,100765.39
0.9111,-0.1802,0.0278,-21.707,30.244,-15.122,0.9292,100766.16
1.2412,0.2095,-0.2876,29.024,53.659,-0.976,1.2912,100765.64
1.0781,0.2856,-0.2271,51.89,41.037,2.5,1.1382,100765.84
0.5547,-0.0083,-0.1445,21.159,-22.256,26.28,0.5733,100765.64
0.4121,-0.272,-0.1587,26.829,-27.439,15.061,0.5186,100765.62
0.3638,-0.0312,-0.1265,64.756,-30.549,13.232,0.3864,100764.73
0.4365,-0.0068,-0.1411,45.183,-36.037,45.427,0.4588,100764.57
0.8159,-0.2725,-0.478,5.732,-30.793,23.171,0.9841,100764.06
0.9507,-0.2534,-0.6587,22.256,-32.256,6.098,1.184,100765.3
1.208,-0.2109,-0.3921,36.159,14.39,1.341,1.2874,100765.84
1.7397,-0.0107,-0.6943,24.634,-14.085,-31.098,1.8732,100764.87
1.8604,-0.1812,0.2949,72.561,13.78,4.878,1.8923,100764.53
0.9023,0.0386,0.5933,16.341,5.061,-10.915,1.0806,100764.17
1.002,0.1494,0.0752,-32.195,10.976,-26.89,1.0158,100764.51
1.0366,0.1118,-0.0737,14.451,24.146,26.89,1.0452,100765.03
0.7974,-0.2109,-0.2666,1.22,12.378,48.841,0.8668,100765.28
0.5513,-0.248,-0.2959,-28.659,-15.427,2.317,0.673,100765.98
0.312,-0.0327,-0.1772,-33.72,-25.976,-38.415,0.3603,100766.38
0.3701,0.0186,-0.1128,-42.317,3.171,-26.768,0.3874,100766.66
0.6079,-0.0591,-0.2671,-43.841,12.744,-4.329,0.6666,100766.99
0.9473,0.0786,-0.4058,-23.659,-6.402,5.854,1.0335,100767.5
1.0063,0.084,-0.3486,-33.72,-8.354,12.073,1.0683,100766.62
1.6401,-0.3281,-0.5835,-53.476,13.232,6.28,1.7715,100766.48
1.481,-0.0972,-0.6875,12.988,-22.866,3.354,1.6356,100766.49
1.2529,0.5542,0.0161,-7.927,-25.427,1.646,1.3701,100765.27
1.3555,-0.2583,0.4424,-111.159,14.878,-40.244,1.449,100764.84
1.1758,-0.5581,0.2427,-50.976,9.207,-11.341,1.3239,100764.64
1.0884,0.0576,-0.1797,26.646,30.793,25.366,1.1046,100764.96
1.0972,0.4751,-0.3813,34.146,35.122,17.744,1.255,100765.48
0.5605,0.0576,-0.3467,-20.122,-14.39,31.22,0.6616,100764.89
0.2905,-0.2095,-0.2017,-0.488,-34.817,15.061,0.411,100764.91
0.3413,-0.0596,-0.1001,47.378,-26.098,11.524,0.3606,100765.07
0.4448,-0.0913,-0.1504,31.341,-11.707,42.988,0.4784,100765.2
0.7017,-0.2905,-0.4937,-0.183,-7.195,29.268,0.9058,100765.89
0.9932,-0.187,-0.6055,8.902,-16.524,-10.0,1.1781,100765.44
1.5449,-0.1816,-0.4727,22.805,23.11,-18.659,1.6258,100766.08
1.5825,0.0518,-0.3604,25.488,25.183,9.512,1.6239,100765.58
1.5156,-0.187,-0.2695,-9.512,-13.537,-2.866,1.5507,100766.31
1.5425,-0.2017,0.3433,14.329,17.622,-1.341,1.593,100764.89
0.7778,0.2554,0.5298,19.878,-8.902,11.22,0.9751,100766.04
1.0498,0.0015,0.0654,-5.61,25.915,-7.805,1.0518,100765.91
1.4399,-0.0498,-0.3306,21.22,49.146,6.829,1.4782,100765.7
0.9424,-0.2217,-0.3999,28.049,-15.366,27.195,1.0474,100765.91
0.355,-0.1865,-0.1704,-3.293,-56.829,-2.073,0.4357,100766.82
0.2217,-0.0581,-0.1211,-38.11,-41.707,-27.988,0.2592,100766.23
0.2715,-0.0425,-0.249,-38.049,-33.78,-24.39,0.3708,100765.19
0.4805,0.1348,-0.4062,-18.902,-32.988,-19.207,0.6435,100765.76
0.9199,0.1108,-0.459,-17.012,-6.159,-7.561,1.034,100766.58
1.5054,-0.1436,-0.502,-20.0,31.159,21.524,1.5933,100766.07
1.6958,-0.4014,-0.8208,-20.671,9.573,23.232,1.9263,100765.58
1.2915,0.1348,-0.6631,17.195,-35.732,2.622,1.458,100765.34
1.5928,0.687,0.3003,-40.244,0.793,-49.573,1.7604,100765.39
0.7275,-0.314,0.0889,-3.11,-17.622,9.085,0.7974,100765.79
0.9189,-0.0024,-0.2163,43.537,54.939,31.89,0.9441,100765.46
1.0703,0.2544,-0.4556,67.5,56.585,11.585,1.1907,100765.48
0.6143,0.0791,-0.4189,25.976,-27.256,39.207,0.7477,100765.12
0.2983,-0.1699,-0.2139,16.28,-41.341,28.354,0.4045,100763.88
0.3071,-0.0186,-0.084,37.744,-14.512,0.915,0.3189,100764.3
0.4976,-0.104,-0.2261,22.622,-7.439,3.049,0.5563,100765.36
0.748,-0.248,-0.5503,19.39,1.463,0.061,0.9612,100765.29
0.9697,-0.1875,-0.6865,50.366,-7.439,6.524,1.2028,100765.61
1.4619,-0.1069,-0.5479,65.488,16.037,2.622,1.5649,100765.84
1.4155,-0.0713,-0.6455,36.159,-9.634,-23.72,1.5574,100766.14
1.4111,-0.1587,-0.668,-9.085,-49.39,-18.72,1.5693,100766.24
1.7896,-0.1987,0.167,3.72,14.634,-0.854,1.8083,100765.7
0.978,0.061,0.4185,13.659,-23.354,4.634,1.0655,100765.94
0.7188,0.0278,0.0713,12.622,-4.085,7.988,0.7228,100766.59
0.8975,-0.1123,-0.1787,9.634,64.573,31.159,0.9219,100767.45
1.0107,-0.0312,-0.4419,-10.854,46.463,10.793,1.1036,100767.73
0.7144,-0.0435,-0.438,-32.988,-11.524,-4.451,0.8391,100767.83
0.354,-0.123,-0.2554,-44.024,-29.024,-8.537,0.4535,100767.64
0.3618,-0.0205,-0.1738,-39.939,-19.817,-25.366,0.4019,100767.51
0.5576,0.0137,-0.3149,-29.939,4.024,-17.805,0.6406,100767.77
1.0425,-0.0039,-0.4858,-29.817,13.78,3.841,1.1501,100767.59
1.2734,-0.2207,-0.5991,-46.585,-22.988,12.378,1.4245,100767.1
1.3916,-0.1587,-0.7422,-32.561,-4.146,11.646,1.5851,100767.34
1.6792,0.2231,-0.5674,9.512,9.207,1.707,1.7865,100766.55
1.4736,0.2202,0.1982,-3.354,3.415,-33.049,1.5031,100766.31
0.9238,-0.3125,0.3237,-32.561,-3.72,-31.951,1.0276,100766.27
0.8198,-0.3042,-0.0654,-34.329,-6.768,16.89,0.8769,100766.23
0.9243,-0.1768,-0.4775,-6.402,40.549,5.854,1.0553,100766.44
0.835,0.2603,-0.4253,41.341,51.463,-14.634,0.9725,100765.98
0.6509,0.2803,-0.3506,12.378,-22.317,0.732,0.7906,100765.52
0.4414,-0.062,-0.1812,-6.646,-44.756,5.549,0.4811,100765.66
0.335,-0.2456,-0.1836,17.073,-39.512,3.78,0.4541,100766.13
0.4565,-0.0874,-0.2524,51.646,-32.988,1.28,0.529,100766.25
0.8452,-0.189,-0.5674,47.683,-3.415,10.732,1.0354,100766.7
