ax,ay,az,gx,gy,gz,avm,pressure
1.5532,0.0684,-0.208,42.805,50.488,-21.098,1.5686,100743.12
1.5151,-0.0889,-0.5767,-58.78,65.549,-38.476,1.6236,100744.01
0.9756,-0.1479,-0.8018,-45.0,10.183,-32.073,1.2714,100744.14
0.7397,-0.0308,-0.563,42.988,49.207,-12.317,0.9301,100744.02
0.9458,-0.0591,-0.293,45.305,63.78,-21.951,0.9919,100742.79
0.8379,-0.021,-0.0737,14.024,19.939,-0.305,0.8414,100742.99
0.4058,-0.0273,-0.0938,-4.939,-16.646,48.78,0.4173,100743.53
0.3965,-0.3447,0.0981,20.061,-12.805,64.329,0.5345,100743.92
0.8701,-0.4438,-0.0029,2.622,20.122,36.22,0.9768,100743.36
1.7856,-0.2607,-0.4575,-23.78,-22.927,-51.098,1.8617,100743.41
1.8428,0.043,-0.3433,-13.72,21.646,-33.78,1.875,100743.34
1.1641,0.0117,-0.4023,-36.28,29.39,32.317,1.2317,100743.54
0.9023,-0.0342,-0.3369,-50.61,42.195,7.866,0.9638,100743.08
1.0566,-0.0098,-0.418,-56.22,40.671,-18.902,1.1363,100743.34
0.7515,-0.0752,-0.2148,-41.707,21.341,-5.732,0.7852,100743.19
0.2285,-0.0879,-0.0796,-14.268,-11.341,32.378,0.2574,100743.67
0.3257,0.063,0.085,29.268,-22.256,28.963,0.3424,100743.55
0.9473,0.0181,0.1182,43.902,25.61,-0.488,0.9548,100743.34
1.2373,0.0024,0.1904,13.72,34.329,-32.866,1.2519,100742.91
1.7534,-0.0332,-0.4043,-22.744,10.732,-50.854,1.7997,100742.73
1.731,-0.0527,-0.6719,33.902,2.378,-10.427,1.8575,100742.59
1.0381,-0.0078,-0.2329,90.122,10.305,25.793,1.0639,100742.98
0.8394,-0.0352,-0.145,32.439,-12.256,-20.305,0.8525,100743.17
0.8276,-0.0972,-0.228,3.293,-4.512,-14.39,0.864,100744.04
0.5938,-0.3091,0.1455,-7.805,-24.39,27.5,0.685,100743.57
1.2666,-0.2847,0.1094,-39.939,34.268,19.451,1.3028,100743.86
1.896,-0.3018,-0.4824,-65.061,44.512,-14.878,1.9795,100743.84
1.8584,0.0415,-0.5796,-33.963,8.902,-16.768,1.9471,100744.31
1.1538,0.0444,-0.3823,-27.195,16.707,40.366,1.2163,100743.79
0.8623,-0.042,-0.4277,-27.561,15.915,14.268,0.9635,100743.52
0.6899,0.0146,-0.1675,1.402,-22.256,-10.183,0.7101,100743.59
0.1846,-0.1221,-0.0771,9.451,-50.427,-2.195,0.2343,100743.62
0.2749,0.0298,0.085,41.646,-58.171,5.732,0.2893,100743.41
0.5811,0.1851,0.1675,70.915,-44.512,11.585,0.6324,100744.11
1.2598,0.1309,0.0454,63.78,9.817,-14.146,1.2674,100743.64
1.2046,-0.1357,-0.0684,6.829,41.646,1.646,1.2141,100743.42
1.5728,-0.3594,-0.6841,-9.756,64.634,-54.268,1.7523,100743.98
2.0137,-0.0156,-0.7876,43.598,69.817,-72.134,2.1623,100744.42
1.4146,-0.0088,-0.3628,31.402,27.5,-11.159,1.4604,100745.12
0.6904,-0.1729,-0.293,-5.732,-5.671,0.244,0.7697,100744.78
0.4194,0.0898,0.0708,16.341,-16.22,18.049,0.4348,100744.39
0.1221,-0.2163,0.1885,-11.402,-23.11,57.134,0.3118,100743.88
0.4805,-0.3149,0.2866,-14.695,2.622,24.085,0.642,100743.59
0.9536,-0.1333,0.3706,-18.963,25.0,-44.451,1.0317,100742.77
1.7119,-0.2222,-0.3555,-51.89,24.207,-8.049,1.7625,100743.03
1.9048,-0.0278,-0.7632,-35.122,0.366,28.902,2.0522,100742.84
1.0845,-0.0073,-0.4023,-41.037,-13.232,36.098,1.1567,100742.47
1.0107,0.0483,-0.2075,-29.512,-0.488,-21.402,1.033,100742.12
0.3262,-0.2446,-0.0273,-7.744,-45.549,30.244,0.4086,100742.3
0.2983,-0.0513,0.1313,23.902,-69.878,34.268,0.33,100742.56
0.9634,0.1499,0.3369,67.073,-7.866,-15.122,1.0315,100742.51
1.2979,0.1826,0.4678,35.427,48.537,-30.366,1.3916,100743.82
1.7139,-0.1279,-0.54,-60.549,62.866,-23.537,1.8015,100743.2
1.9917,-0.1802,-0.9902,8.902,21.28,-49.207,2.2316,100742.48
1.1187,0.0337,-0.0288,121.098,-35.366,-1.402,1.1195,100742.7
0.8252,-0.042,0.1694,42.866,-63.841,-20.366,0.8435,100742.73
0.2769,-0.23,-0.2593,-41.037,-57.866,9.146,0.4436,100743.5
0.0122,-0.0615,0.0396,-4.268,-67.012,49.695,0.0742,100743.59
0.1899,-0.3467,0.1973,-6.768,-57.927,63.537,0.4418,100743.77
0.9692,-0.2607,0.3086,-22.683,11.951,-11.829,1.0501,100743.16
1.5854,-0.1553,-0.0327,-59.451,50.854,-88.902,1.5934,100743.56
1.834,-0.3159,-0.8511,-66.768,66.037,40.671,2.0464,100744.01
1.7085,-0.2236,-0.6509,-18.72,36.159,34.146,1.8419,100744.08
1.3315,0.0732,-0.0381,-22.744,24.024,-52.317,1.3341,100743.77
1.1211,0.2207,-0.4463,-58.537,19.695,-8.902,1.2267,100744.41
0.5815,-0.0449,-0.498,-29.756,-17.317,35.122,0.767,100745.02
0.0356,-0.0962,-0.0518,21.951,-64.512,15.549,0.1149,100744.11
0.2905,0.0933,0.2681,65.488,-47.134,-15.244,0.4062,100743.55
0.7856,0.0215,0.1143,79.024,-22.927,-42.866,0.7942,100743.62
0.9941,0.1196,0.0283,64.268,-14.146,-34.939,1.0017,100743.44
1.3574,-0.0225,-0.2573,9.146,35.427,-39.756,1.3818,100742.81
2.2095,-0.0903,-0.7549,-3.476,95.488,-77.378,2.3366,100743.45
1.9453,0.1484,-0.5918,50.366,2.866,-45.671,2.0387,100743.55
0.7456,0.0283,-0.0542,79.451,-50.122,30.183,0.7481,100744.12
0.1406,-0.1943,-0.0073,17.927,-26.159,37.439,0.24,100743.68
0.373,-0.0767,-0.1074,-17.805,-32.256,10.61,0.3957,100744.36
0.1611,-0.0977,0.189,-11.037,-14.451,22.561,0.2668,100743.38
0.4219,-0.2646,0.1387,-23.293,-7.5,5.366,0.517,100743.5
1.1992,-0.1006,-0.0742,-36.463,0.183,-17.988,1.2057,100743.35
1.6606,-0.0508,-0.4624,-61.28,86.402,16.89,1.7246,100744.11
1.2334,-0.0757,-0.2354,-69.268,104.085,-61.159,1.2579,100744.18
2.1694,0.2471,-0.2339,-36.707,86.829,-49.939,2.1959,100744.6
1.9834,0.4419,-0.5806,-43.171,64.512,45.488,2.1133,100744.55
0.3696,-0.1255,-0.4395,-52.5,-35.183,106.159,0.5878,100744.14
-0.1099,-0.2529,0.002,18.11,-83.049,60.61,0.2758,100745.09
0.2271,0.0801,0.2861,65.427,-58.659,10.183,0.3739,100745.18
0.6055,0.0498,0.3716,40.061,31.89,3.049,0.7121,100743.87
1.5225,0.1211,0.1162,0.061,10.732,-39.512,1.5317,100743.75
2.1396,0.0737,-0.376,3.415,35.183,4.878,2.1737,100744.04
1.1792,-0.2222,-0.3154,27.317,-16.28,14.329,1.2407,100743.76
0.98,-0.1001,-0.1914,65.549,-17.866,-30.305,1.0035,100743.91
1.1772,-0.085,-0.1641,31.037,10.061,-29.634,1.1917,100743.04
0.6099,-0.2192,-0.3711,-27.744,-22.073,-2.439,0.7468,100744.02
0.3984,-0.0332,0.0742,-5.732,-39.146,28.841,0.4066,100744.48
0.2974,-0.2012,0.1841,-6.585,-57.073,58.598,0.4035,100744.96
0.4536,-0.2856,0.2593,-15.244,-38.171,24.39,0.5955,100744.34
2.3784,-0.1104,-0.499,-52.866,30.0,-26.402,2.4327,100743.05
1.5366,0.0254,-0.4517,-59.329,27.622,10.732,1.6018,100743.9
1.1157,0.0259,-0.209,-46.098,38.476,5.549,1.1354,100743.29
0.9141,0.0781,-0.4521,-51.463,47.134,4.451,1.0228,100743.45
0.4463,-0.0542,-0.1704,-37.256,54.207,20.0,0.4808,100743.7
0.1772,-0.1699,-0.1162,-11.463,-44.451,7.622,0.2717,100743.64
0.2778,0.1143,0.2495,42.134,-80.732,4.695,0.3905,100743.99
0.6401,-0.0127,0.2427,40.244,0.793,-3.415,0.6847,100744.22
1.6206,0.019,-0.1606,27.988,26.098,-24.695,1.6287,100744.54
1.6709,-0.0127,-0.4849,26.646,-0.122,7.195,1.7399,100745.04
1.085,-0.1836,-0.4531,50.305,-15.305,-0.915,1.19,100745.38
1.3267,-0.0225,-0.0479,73.78,23.72,-45.122,1.3277,100745.28
1.2603,-0.1675,-0.3271,-2.744,32.195,-50.305,1.3128,100745.45
0.7021,-0.147,-0.312,-10.0,-13.537,-19.146,0.7823,100745.31
0.4019,-0.0581,-0.0112,7.927,-39.695,34.268,0.4062,100745.24
0.2197,-0.2964,0.1816,15.854,-83.902,60.732,0.4112,100745.07
0.8853,-0.2446,0.3057,7.744,-25.61,-22.378,0.968,100744.68
1.9648,-0.084,-0.0552,-49.817,8.232,-34.268,1.9674,100745.13
1.543,-0.1787,-0.585,-59.512,23.293,35.305,1.6598,100744.23
0.896,-0.1274,-0.4028,-28.963,2.317,20.976,0.9906,100743.92
1.1548,0.1167,-0.2466,-37.5,4.512,-19.146,1.1866,100743.43
1.1216,0.0454,-0.5444,-50.976,27.012,-17.439,1.2476,100743.72
0.6177,-0.1099,-0.1958,-30.122,1.524,9.085,0.6572,100744.77
0.3706,-0.167,-0.0674,-8.598,-54.146,39.512,0.412,100744.34
0.3779,0.0146,0.0093,33.171,-93.11,37.805,0.3783,100744.27
0.9678,0.0068,0.0161,55.366,-20.305,-30.793,0.9679,100744.2
1.606,0.2793,0.0176,69.329,8.415,-64.329,1.6302,100744.91
1.9907,0.0757,-0.6792,10.976,-15.427,-29.634,2.1048,100744.71
1.1655,-0.29,-0.8013,39.207,-30.061,2.927,1.4438,100744.94
0.4897,-0.252,-0.2505,98.841,-20.549,-2.439,0.605,100745.97
0.8286,-0.0879,-0.0532,14.878,2.073,-46.402,0.835,100746.49
0.813,-0.0791,-0.418,-69.451,-32.744,-20.793,0.9176,100746.62
0.3359,-0.0312,-0.127,-17.805,-40.244,36.098,0.3605,100746.12
0.8081,-0.3359,-0.312,32.256,-21.037,54.695,0.9291,100745.61
0.8286,-0.3022,0.1812,42.805,-9.695,24.085,0.9004,100745.49
1.3574,-0.1904,-0.0854,-44.817,14.756,-19.817,1.3734,100745.0
1.4375,-0.0518,-0.8149,-67.134,3.841,-1.89,1.6532,100744.04
1.1841,-0.1299,-0.8765,-24.146,23.537,36.89,1.4789,100744.8
0.7915,-0.1523,-0.5024,2.744,11.707,16.28,0.9498,100744.88
0.9028,0.0425,-0.3232,12.012,28.72,-10.61,0.9599,100744.7
0.8481,0.021,-0.0435,-19.512,30.183,30.915,0.8495,100744.7
0.1802,-0.3096,-0.313,-60.793,-31.341,49.024,0.4757,100744.28
0.6885,0.0181,-0.2114,29.634,-29.329,8.78,0.7204,100742.86
1.1021,0.0195,-0.0757,74.634,-0.671,-9.024,1.1048,100741.82
1.3442,0.1104,0.0352,65.122,37.988,-45.854,1.3492,100741.42
1.2993,-0.252,-0.4741,-9.146,26.28,-42.927,1.4059,100741.62
1.0425,-0.3296,-0.6445,12.805,19.634,-20.366,1.2692,100742.01
0.8711,-0.3267,-0.6411,57.744,20.732,20.427,1.1298,100741.91
0.8208,-0.1172,-0.2324,31.037,-28.78,-21.951,0.8611,100742.82
0.9282,0.1768,-0.187,-27.073,-43.476,-30.549,0.9632,100742.16
0.5884,-0.0679,-0.1953,-52.622,-22.988,28.049,0.6237,100742.67
0.4907,-0.4897,-0.1738,-27.866,-23.841,43.171,0.7148,100742.55
0.8662,-0.416,-0.2266,11.89,-34.573,16.28,0.9873,100742.7
1.3687,-0.2046,-0.1733,35.671,22.256,8.72,1.3947,100741.45
1.1377,-0.0376,-0.3008,-17.622,25.061,-9.329,1.1774,100740.77
1.0386,-0.2627,-0.4604,-49.329,7.622,-38.537,1.166,100742.24
1.416,-0.3086,-0.8071,-39.817,99.268,-2.073,1.6589,100743.1
1.0322,0.0312,-0.665,-10.0,52.134,22.012,1.2283,100743.01
0.6201,0.0586,-0.1914,-36.159,-18.78,-6.951,0.6516,100743.29
0.6426,-0.1475,-0.1929,-38.049,-27.134,5.244,0.6869,100743.63
0.5137,-0.0303,-0.0459,15.671,-42.256,22.012,0.5166,100743.88
0.8301,0.0542,0.0054,44.573,5.061,15.061,0.8319,100743.22
1.2554,0.1094,-0.2095,43.659,23.415,-7.805,1.2774,100742.43
1.3218,-0.1958,-0.3818,13.537,-5.122,-45.671,1.3897,100742.88
1.0391,-0.4043,-0.8301,13.415,12.622,-41.159,1.39,100743.45
0.812,-0.1211,-0.3472,63.841,-15.061,-48.841,0.8914,100743.01
1.2202,-0.0142,-0.4072,7.195,-38.415,-60.0,1.2865,100743.41
1.0571,0.1064,-0.3774,-22.378,-22.683,5.0,1.1275,100743.59
0.3408,-0.1318,-0.0205,-18.293,-21.159,76.28,0.366,100743.0
0.291,-0.3496,-0.1479,15.305,-41.707,15.793,0.4783,100742.8
0.918,-0.1787,0.1851,24.451,-48.537,-36.646,0.9533,100742.55
1.478,-0.0571,-0.3223,-36.646,8.841,-102.5,1.5138,100742.34
1.1963,0.0981,-0.8057,-39.756,3.537,-89.207,1.4456,100741.82
1.1929,0.0757,-0.7646,-0.915,11.22,10.244,1.4189,100742.8
1.0747,-0.042,-0.5723,2.805,-3.537,17.195,1.2183,100743.3
0.8809,0.1655,-0.4106,8.963,0.976,0.488,0.9859,100743.66
0.8789,-0.0249,-0.3364,-14.573,-2.012,17.988,0.9414,100744.55
0.4077,-0.1245,-0.3516,-2.439,-34.024,46.463,0.5526,100744.11
0.4136,0.0054,-0.187,40.488,-38.232,27.439,0.4539,100744.5
1.0996,0.2153,-0.1494,50.732,-11.89,-12.012,1.1304,100745.07
1.375,0.3389,-0.1128,20.793,5.0,-32.5,1.4206,100745.23
0.8555,0.0044,-0.7549,-41.89,30.976,-33.232,1.1409,100744.73
1.0327,-0.168,-0.7407,22.378,-16.159,-57.439,1.2819,100745.48
1.0879,-0.0171,-0.5356,58.354,44.756,-17.195,1.2127,100746.18
0.9224,-0.1523,-0.522,24.878,49.756,19.756,1.0707,100746.7
0.5806,-0.0068,-0.2764,1.159,-15.732,-2.195,0.643,100746.45
0.6597,0.2871,-0.4277,-42.012,-18.354,-16.28,0.837,100746.28
0.7612,-0.2949,-0.3325,-25.183,16.159,26.098,0.8815,100746.01
0.7319,-0.4653,0.0503,8.354,37.683,43.963,0.8688,100745.31
1.1094,-0.0161,0.0107,-24.756,51.22,30.854,1.1095,100745.55
1.2935,0.1562,-0.2793,-89.268,-1.22,-3.72,1.3325,100744.85
1.2002,0.0674,-0.77,-85.488,27.866,0.976,1.4276,100745.58
1.2217,0.0664,-0.6104,-49.085,63.232,11.524,1.3673,100745.62
1.0625,0.1108,-0.7109,-54.39,30.488,3.049,1.2832,100746.03
0.7734,0.0996,-0.4258,-10.122,1.22,9.207,0.8885,100745.35
0.2588,-0.1157,0.0063,21.951,-23.11,29.329,0.2836,100745.2
0.356,0.0103,0.126,29.695,-37.927,15.915,0.3777,100744.73
0.9424,0.1724,-0.0571,21.829,-3.598,-18.78,0.9597,100744.85
1.6367,0.1929,-0.1226,18.72,41.768,-44.268,1.6526,100745.59
1.5215,0.1143,-0.2842,12.378,50.061,-22.988,1.552,100745.26
1.1572,-0.0918,-0.7607,-7.5,5.061,-16.768,1.3879,100744.89
1.2036,0.0376,-0.5396,45.61,13.476,-30.122,1.3196,100744.62
1.0288,-0.021,-0.2383,32.744,-9.939,-19.512,1.0563,100744.66
0.6377,-0.0889,-0.2334,-15.549,-39.695,3.78,0.6849,100744.58
0.2993,0.0571,-0.0454,-9.817,-55.366,32.134,0.3081,100745.01
0.2856,-0.2139,0.0771,-5.0,-51.037,54.695,0.3651,100744.84
0.5752,-0.2476,0.0957,-7.927,-44.146,24.817,0.6335,100745.22
1.0601,-0.313,-0.1377,-38.537,-15.183,1.707,1.1138,100745.74
1.5698,-0.1587,-0.582,-49.085,27.439,4.024,1.6818,100744.91
1.6318,0.0732,-1.0332,-46.098,34.146,9.024,1.9328,100745.0
1.4561,0.0942,-0.7793,-15.0,34.268,38.598,1.6542,100744.34
0.9307,0.0405,-0.5635,-20.183,20.0,31.585,1.0887,100745.1
0.8477,0.1553,-0.5776,-34.451,7.866,-13.659,1.0374,100744.91
0.5347,-0.1187,-0.3208,-22.927,-72.805,-39.39,0.6347,100745.41
0.4062,-0.1021,-0.1533,20.122,-70.915,-13.537,0.446,100745.52
0.4609,-0.0166,-0.0703,84.085,-22.622,30.488,0.4666,100744.99
1.0977,0.0781,0.2197,77.683,-0.244,-10.488,1.1222,100745.09
1.6123,0.3667,-0.2388,15.183,48.049,-36.402,1.6706,100745.41
1.1626,-0.0288,-0.6816,-17.317,51.524,-5.488,1.348,100745.88
1.0718,-0.2041,-0.7217,19.634,28.476,-3.049,1.3081,100745.62
1.1196,-0.166,-0.4546,54.39,54.817,-5.549,1.2197,100745.93
0.8501,-0.1572,-0.2739,8.476,9.329,-31.829,0.9069,100745.91
0.6235,0.1973,-0.082,-19.634,-27.073,-19.878,0.6591,100746.89
0.3013,-0.0312,0.0684,-30.366,-30.427,41.646,0.3105,100747.01
1.0122,-0.4116,-0.0264,-19.573,1.829,16.341,1.093,100745.83
1.5498,-0.1177,-0.1353,-49.451,53.537,-30.427,1.5601,100746.09
1.7915,0.1523,-0.9219,-69.451,75.305,7.5,2.0205,100746.54
1.4092,0.0518,-0.6299,-25.61,32.378,44.085,1.5444,100746.99
1.0532,0.0483,-0.4707,-29.512,6.829,-2.622,1.1546,100747.07
0.8477,0.1152,-0.3369,-2.744,-6.951,-13.476,0.9194,100747.02
0.3472,-0.1733,-0.1123,-3.841,-39.695,18.78,0.404,100746.99
0.3779,-0.1733,-0.041,16.463,-67.256,15.0,0.4178,100747.11
0.6123,0.0918,0.0547,60.122,-41.585,16.768,0.6216,100746.8
0.9399,0.0928,0.002,48.11,11.159,-11.463,0.9445,100746.59
1.4712,0.2393,-0.168,38.476,34.451,-32.561,1.5,100745.67
1.5449,-0.1167,-0.7891,15.549,34.024,-33.171,1.7387,100745.98
1.2148,-0.2275,-0.5693,44.634,13.293,-36.585,1.3608,100746.58
0.978,-0.1562,-0.1431,41.89,27.317,-37.073,1.0007,100747.16
0.9941,-0.0889,-0.3208,-25.793,19.939,-32.012,1.0484,100746.96
0.6147,0.082,-0.2734,-37.866,-33.354,-1.463,0.6778,100746.44
0.1709,-0.0234,0.0752,1.402,-66.829,32.317,0.1882,100746.19
0.4624,-0.269,0.124,6.463,-58.841,42.988,0.5492,100745.86
0.8032,-0.4326,-0.1626,-24.939,-25.732,17.317,0.9267,100745.13
1.4585,-0.1494,-0.3179,-27.622,24.878,-12.866,1.5002,100746.05
1.707,0.1074,-0.9072,-35.427,35.305,-13.476,1.9361,100744.9
1.4111,-0.0034,-0.5508,-10.0,53.293,14.268,1.5148,100745.52
1.1733,0.1089,-0.4277,-20.122,53.232,-6.037,1.2536,100745.74
0.9614,0.0864,-0.644,-54.268,25.122,-24.756,1.1604,100746.05
0.4067,-0.125,-0.231,-24.695,-17.012,4.634,0.4842,100747.25
0.2417,-0.0562,0.0938,21.463,-44.085,16.22,0.2653,100747.66
0.751,0.0327,0.0688,49.329,-15.854,32.073,0.7548,100747.48
1.0869,-0.0591,0.0005,59.329,17.439,18.049,1.0885,100747.84
1.291,0.2617,-0.0171,47.744,51.463,-20.0,1.3174,100747.5
1.4043,-0.0728,-0.6479,-30.427,64.878,-57.012,1.5483,100746.48
1.4282,-0.0581,-0.6724,19.695,32.744,-50.793,1.5796,100746.85
1.1167,-0.1211,-0.2954,63.72,30.732,-20.976,1.1614,100747.36
0.8955,-0.2153,-0.1904,23.415,14.573,-18.11,0.9405,100747.62
0.3926,0.0205,0.0342,-5.61,-47.927,4.695,0.3946,100747.71
0.127,-0.1089,0.2144,-15.732,-67.317,36.037,0.2719,100747.99
0.6958,-0.4341,0.1182,-26.524,-36.402,49.024,0.8286,100748.1
1.5508,-0.3506,0.1128,-60.305,9.39,6.098,1.5939,100748.06
1.7378,0.085,-0.4702,-98.476,34.268,-46.951,1.8023,100748.02
1.7163,0.3032,-0.8506,-41.402,36.768,15.915,1.9394,100747.49
1.1826,0.0684,-0.3071,-11.22,-1.951,51.037,1.2238,100748.1
0.9404,0.1646,-0.1484,-12.744,27.073,21.037,0.9662,100748.42
0.4731,-0.0815,-0.1763,-22.683,4.146,6.037,0.5115,100748.31
0.0396,-0.0586,-0.0508,30.061,-64.451,-8.293,0.087,100747.84
0.3911,0.1919,0.1567,71.829,-34.939,0.915,0.463,100747.38
1.0884,-0.0415,0.0303,66.402,1.463,25.366,1.0896,100747.03
1.2036,0.0044,-0.0596,48.476,32.134,1.585,1.2051,100746.76
1.6997,0.0537,-0.5112,-1.402,72.683,-65.549,1.7757,100746.93
2.0337,0.0635,-0.8271,4.756,65.244,-60.854,2.1964,100747.45
1.0742,-0.1167,-0.2251,67.622,-2.256,10.305,1.1037,100747.2
0.6328,-0.2822,-0.0186,39.756,-29.146,8.232,0.6931,100747.14
0.4409,0.0215,0.0005,0.244,-63.841,21.707,0.4414,100746.98
0.0557,-0.082,0.2505,0.244,-88.171,55.0,0.2694,100746.23
0.623,-0.3438,0.1528,-12.744,-47.622,39.878,0.7278,100746.29
1.0752,-0.3525,0.062,-50.61,19.634,0.305,1.1332,100745.98
1.9448,-0.1743,-0.3672,-74.146,79.39,-36.463,1.9868,100745.61
1.8257,-0.082,-0.7314,-38.293,53.659,20.732,1.9685,100745.95
1.3345,0.104,-0.3003,-15.854,30.732,43.537,1.3718,100745.46
0.981,0.0728,-0.4087,-52.134,27.866,6.585,1.0652,100745.74
0.5396,-0.0332,-0.2949,-25.366,-18.72,-5.976,0.6158,100745.06
0.1177,-0.1157,0.1226,34.756,-74.878,-1.402,0.2056,100744.93
0.3159,0.0845,0.2432,63.11,-70.427,4.573,0.4075,100745.57
1.1294,-0.0498,-0.0947,56.829,-19.39,13.415,1.1345,100746.43
1.1821,0.064,0.0532,55.976,6.159,-13.476,1.1851,100746.7
1.2715,0.0737,-0.1709,-8.537,43.659,-61.22,1.285,100746.43
1.9849,-0.1851,-0.9048,-17.683,85.915,-67.561,2.1892,100746.22
1.2178,-0.2456,-0.3315,67.073,13.476,17.561,1.2858,100745.79
1.0352,-0.3721,0.0376,13.537,9.512,16.402,1.1006,100745.48
0.8525,0.0479,-0.165,-38.963,-51.341,-36.098,0.8697,100745.38
-0.063,0.1528,0.1606,-13.963,-92.378,35.183,0.2305,100746.04
-0.0205,-0.291,0.2949,0.976,-65.671,71.829,0.4148,100746.8
0.729,-0.4624,0.1104,-24.024,-17.012,22.805,0.8703,100747.24
1.6904,-0.4111,-0.1538,-68.232,85.061,-39.39,1.7465,100747.24
2.3159,0.272,-0.729,-100.244,80.793,-67.927,2.4431,100748.2
1.543,0.1899,-0.5791,-63.171,32.073,25.61,1.659,100747.67
1.0361,-0.022,-0.3228,-46.768,35.488,37.134,1.0855,100747.13
0.7173,0.0562,-0.5933,-49.817,11.768,14.39,0.9325,100748.11
0.3447,-0.1929,-0.2632,-15.732,-20.671,26.951,0.4747,100748.21
0.1543,-0.0981,-0.0127,28.049,-65.793,10.915,0.1833,100747.68
0.3477,0.1504,0.2349,67.256,-57.744,17.073,0.4457,100747.92
0.9097,-0.063,0.0415,59.573,-17.622,-4.878,0.9128,100747.48
1.7021,0.1367,-0.0996,43.354,45.427,-51.829,1.7105,100746.41
1.9946,-0.0117,-0.5996,16.463,72.988,-41.402,2.0828,100747.2
1.4316,-0.1807,-0.6235,55.305,11.89,-25.244,1.572,100747.92
1.208,-0.0972,-0.0977,86.646,10.0,-36.22,1.2158,100748.34
0.8804,-0.2432,-0.1782,26.89,3.841,-35.427,0.9306,100748.18
0.5864,-0.0996,-0.3276,1.646,-23.72,12.256,0.6791,100748.04
0.1914,-0.0947,0.1914,17.012,-60.061,47.073,0.2868,100747.67
0.1807,-0.1558,0.2383,-3.902,-62.866,51.707,0.3372,100747.66
0.6279,-0.4858,0.126,-12.927,-26.829,28.415,0.8039,100747.77
1.478,-0.4043,-0.1533,-32.805,27.256,-10.427,1.54,100746.86
2.0703,0.0103,-0.6855,-68.72,55.915,-23.902,2.1809,100747.28
1.5176,-0.0454,-0.6294,-65.427,28.476,8.963,1.6435,100747.62
1.2017,-0.0674,-0.2305,-52.805,40.854,13.415,1.2254,100747.87
0.9282,0.1562,-0.4614,-67.988,45.0,2.195,1.0483,100748.78
0.3179,-0.1567,-0.3359,-57.378,11.159,13.659,0.4883,100749.24
0.2471,-0.0903,-0.0791,30.122,-63.537,17.439,0.2747,100748.59
0.4424,0.1992,0.1475,100.976,-63.415,40.671,0.5071,100748.98
0.9033,-0.0171,0.0459,94.512,-11.524,35.488,0.9046,100748.15
1.3638,0.1836,0.1978,79.695,21.829,-8.293,1.3902,100748.78
1.9326,-0.2222,-0.481,-0.305,66.768,-61.159,2.0039,100748.84
1.7095,-0.5352,-0.9014,14.573,20.305,-65.915,2.0053,100748.56
1.1812,-0.1528,-0.1348,47.561,18.78,-64.634,1.1986,100748.96
1.1318,-0.0605,-0.1938,-42.073,19.573,-57.073,1.1499,100749.99
0.3013,-0.0361,-0.126,-27.866,-35.427,34.085,0.3285,100750.41
-0.1475,-0.208,0.354,10.183,-77.927,84.329,0.4363,100750.34
0.1631,-0.3066,0.3242,-4.939,-22.195,43.232,0.4751,100749.8
0.958,-0.3569,0.2334,-40.793,36.22,-16.89,1.0486,100749.4
1.8643,-0.2393,-0.1426,-71.646,64.39,-42.927,1.8849,100749.23
2.2393,-0.0454,-0.7666,-79.512,80.244,-17.317,2.3673,100750.09
1.1934,0.0581,-0.3809,-64.634,35.183,32.195,1.254,100749.61
1.167,0.1089,-0.1763,-79.085,37.256,-5.061,1.1852,100749.38
1.2275,0.0732,-0.4458,-49.878,23.232,4.695,1.308,100749.32
0.1719,-0.3369,-0.0752,13.232,-104.878,43.598,0.3856,100749.77
-0.0439,0.0669,0.3062,59.573,-130.366,14.695,0.3164,100749.99
0.6182,0.1323,0.2236,65.549,-37.378,17.622,0.6706,100749.79
1.3809,-0.1372,0.2158,91.585,24.207,8.293,1.4043,100749.88
1.9307,0.2881,0.1372,25.244,57.744,-63.78,1.9569,100749.95
1.5562,-0.2671,-0.9429,-40.427,45.0,-48.171,1.839,100749.38
0.8955,-0.3926,-0.4443,69.939,12.073,-14.695,1.074,100749.84
1.1611,-0.0396,0.0801,49.207,55.305,-41.646,1.1646,100749.91
1.2236,-0.2666,-0.1982,-49.756,50.183,-22.5,1.2679,100749.23
0.436,-0.0854,0.1592,-1.829,-57.073,23.902,0.472,100749.95
0.1372,0.0708,0.397,27.134,-132.439,67.805,0.4259,100749.14
0.1543,-0.332,0.2456,0.61,-61.402,89.39,0.4409,100748.77
2.2598,-0.2812,-0.2705,-72.744,98.537,-54.268,2.2932,100749.26
1.8394,0.2256,-0.5093,-92.866,56.22,9.268,1.9218,100748.88
1.0576,-0.0806,-0.2944,-111.159,47.805,33.049,1.1008,100749.18
1.23,-0.1201,-0.2808,-48.659,56.037,-9.939,1.2673,100750.05
0.5371,-0.0269,-0.04,4.817,-37.988,8.72,0.5393,100749.22
-0.1934,-0.0288,0.0283,30.122,-92.561,13.537,0.1975,100749.34
0.0986,0.1821,0.3823,63.11,-51.22,2.073,0.4348,100750.17
0.8369,-0.083,0.1855,68.11,-17.927,-13.476,0.8612,100749.92
1.6602,-0.2144,0.1187,95.854,45.732,-22.5,1.6781,100749.37
1.999,0.1157,-0.2148,46.524,82.134,-61.402,2.0139,100749.58
1.6064,-0.1948,-0.3525,10.061,54.512,-33.902,1.6562,100749.22
1.3213,-0.3457,-0.0278,36.768,49.085,-18.963,1.366,100749.33
1.0791,-0.2554,-0.0459,-1.768,28.476,-57.378,1.1099,100749.67
0.4849,-0.043,-0.0889,0.61,-71.28,-9.329,0.4948,100749.8
0.0869,0.002,0.1479,27.805,-80.549,55.671,0.1716,100749.41
-0.0005,-0.3062,0.438,-13.11,-48.476,49.756,0.5344,100749.85
0.6914,-0.4316,0.3525,-73.049,2.988,27.561,0.8881,100749.55
1.6123,-0.5815,-0.0933,-64.573,42.195,5.244,1.7165,100749.23
2.2407,0.1372,-0.1943,-38.902,60.183,-34.756,2.2533,100748.23
1.7979,0.2231,-0.1328,-67.378,70.183,-1.037,1.8165,100748.84
1.6152,-0.334,-0.2954,-90.671,58.415,2.927,1.6756,100748.32
1.1621,0.0435,-0.2944,-34.268,-8.171,15.671,1.1996,100748.44
0.0527,-0.1128,-0.1904,-7.134,-79.573,32.134,0.2275,100748.5
-0.1987,-0.0923,0.084,32.927,-75.671,4.451,0.2347,100748.43
0.8711,-0.1279,0.2026,65.366,-18.659,23.537,0.9035,100748.75
1.749,0.0068,-0.0132,79.817,6.22,-14.024,1.7491,100749.99
1.8154,0.1143,-0.002,64.146,55.183,-24.634,1.819,100750.05
1.5366,-0.5176,-0.0708,37.256,67.622,-42.012,1.623,100749.96
1.5049,-0.4692,-0.2524,6.037,59.756,-92.378,1.5964,100750.14
1.3794,0.0073,-0.168,-9.39,14.207,-58.293,1.3896,100750.54
0.1919,0.0093,0.0093,-7.378,-92.561,73.902,0.1923,100750.71
-0.2451,0.0376,0.2744,-9.939,-113.354,104.695,0.3699,100750.7
0.1743,-0.3052,0.4048,-24.451,-66.524,42.561,0.5361,100750.46
1.1504,-0.4707,0.1567,-35.549,0.854,0.61,1.2528,100750.53
2.0132,-0.4917,-0.2217,-33.598,28.902,-20.061,2.0842,100750.59
1.8252,-0.022,-0.3203,-30.915,72.073,-27.256,1.8532,100750.25
1.3179,0.1431,-0.106,-65.976,65.305,-24.573,1.3298,100749.75
1.6191,0.062,-0.3188,-90.488,75.854,-32.378,1.6514,100750.11
0.8359,-0.0493,-0.3164,-1.707,-38.78,24.329,0.8952,100749.4
-0.2959,-0.2856,-0.1235,54.146,-79.573,53.841,0.4294,100749.35
0.0376,0.124,0.3657,68.11,-45.854,-2.5,0.388,100749.44
0.4961,0.0493,0.4219,23.72,-73.293,-4.939,0.6531,100749.02
1.4595,-0.3135,0.1445,39.024,-11.707,-44.146,1.4997,100748.57
2.3101,0.478,0.1313,64.695,41.585,-66.829,2.3627,100749.23
1.5991,-0.1323,-0.2046,46.951,37.622,13.476,1.6176,100749.85
0.8901,-0.7319,-0.2266,77.683,18.049,6.463,1.1745,100749.45
1.3335,-0.4043,0.0088,58.537,59.512,-47.927,1.3935,100749.78
1.1543,-0.0552,-0.1724,-31.89,14.207,-44.207,1.1684,100750.27
0.144,0.0771,0.0396,-43.963,-87.073,29.451,0.1681,100749.64
-0.0557,-0.1343,0.0757,-32.683,-84.268,54.329,0.1639,100748.8
0.1567,-0.3433,0.3721,-36.585,-24.207,30.61,0.5299,100748.43
0.9771,-0.3374,0.3501,-95.61,-7.012,-3.537,1.0913,100748.38
1.9824,-0.2041,-0.4019,-130.732,-20.427,-36.768,2.033,100747.74
1.9663,0.0063,-0.4458,-67.439,30.244,9.756,2.0162,100748.11
1.5923,-0.1143,-0.0493,-58.171,59.268,41.707,1.5971,100748.52
1.3872,0.1333,-0.5859,-87.012,61.768,9.451,1.5118,100748.7
0.7822,0.1997,-0.5015,-14.817,2.134,43.476,0.9504,100748.61
-0.1128,-0.2236,-0.2456,24.268,-80.244,30.183,0.3508,100748.9
0.0537,0.0332,0.0752,73.598,-74.817,-17.927,0.0982,100748.87
0.5669,0.1157,0.3989,60.366,-28.415,-2.256,0.7028,100748.97
1.0869,-0.3228,0.1196,30.488,20.0,-6.463,1.1401,100749.66
1.7485,0.0044,0.0913,45.366,53.72,-15.488,1.7509,100748.45
1.7251,0.1328,-0.3208,17.866,79.451,-18.841,1.7597,100748.4
1.2837,-0.2749,-0.3755,36.037,58.537,-17.256,1.3654,100748.12
1.4634,-0.2773,-0.1035,73.049,84.573,-51.585,1.493,100748.77
1.2588,-0.2422,-0.1362,10.915,63.293,-84.268,1.2891,100749.52
0.6909,-0.0913,-0.0571,-8.476,-24.756,-17.683,0.6993,100750.35
0.2188,0.0493,0.0991,3.476,-111.707,55.488,0.2452,100749.84
-0.0415,-0.0093,0.3213,-10.122,-95.61,81.707,0.3241,100748.96
0.707,-0.4102,0.3267,-38.72,-28.049,26.707,0.8802,100748.8
1.7065,-0.646,0.0483,-76.646,-3.11,-50.549,1.8254,100748.7
1.9336,-0.043,-0.1665,-36.402,76.159,3.415,1.9412,100748.85
1.6519,0.1392,-0.2935,-52.866,67.317,39.878,1.6835,100748.36
-0.0977,-0.0151,0.0552,79.634,-103.841,22.5,0.1132,100749.95
0.4414,0.1367,0.3765,93.537,-81.89,-3.171,0.596,100748.8
0.9443,-0.2236,0.1685,75.976,-29.878,-19.085,0.985,100749.18
1.6011,-0.1011,0.0742,82.317,43.354,-38.659,1.606,100749.22
1.9097,0.2402,-0.105,71.951,89.268,-28.415,1.9276,100749.99
1.4565,-0.4253,-0.2637,25.183,43.232,1.585,1.5401,100750.08
1.4072,-0.6035,-0.147,40.488,53.537,5.732,1.5382,100750.75
1.1567,-0.2466,-0.1255,-2.012,19.756,-40.854,1.1894,100751.02
0.4614,-0.1772,-0.1611,-20.61,-66.402,-6.28,0.5199,100749.97
0.0684,0.1182,0.3677,11.707,-117.256,55.122,0.3922,100749.82
0.1948,-0.2944,0.2769,-16.768,-59.085,66.159,0.4487,100749.2
1.3813,-0.563,0.1714,-33.537,33.476,31.524,1.5015,100749.48
1.938,-0.502,-0.0151,-55.122,37.256,-11.646,2.002,100748.96
1.355,-0.0508,-0.2041,-43.293,45.122,-12.927,1.3712,100749.95
1.3047,0.0415,-0.0698,-67.866,66.829,2.439,1.3072,100749.67
1.2905,-0.1035,-0.4023,-103.659,75.244,-27.5,1.3557,100749.59
0.7524,-0.0259,-0.1499,-35.915,9.817,-31.89,0.7677,100749.3
0.2539,-0.0063,0.126,28.415,-82.622,18.049,0.2835,100749.44
-0.0967,0.1118,0.3984,52.256,-94.573,52.439,0.425,100749.92
0.6318,-0.1201,0.2007,48.78,-63.11,20.244,0.6737,100748.8
1.2637,-0.373,0.0557,74.634,2.5,-13.598,1.3188,100747.71
1.7876,0.1738,-0.0098,56.22,66.768,-72.073,1.7961,100748.0
1.2886,-0.4136,-0.3545,8.415,27.073,7.012,1.399,100749.01
1.3794,-0.4043,-0.1401,31.524,70.915,-35.122,1.4442,100748.6
0.8853,-0.1445,0.0078,2.744,-32.378,-82.805,0.897,100749.56
0.2012,0.1416,0.1963,12.622,-129.329,-4.451,0.3147,100750.14
-0.1152,-0.2017,0.2969,-11.646,-72.134,68.963,0.3769,100750.3
0.6958,-0.397,0.2568,-41.463,9.207,31.098,0.8412,100749.59
1.7207,-0.5674,0.0659,-72.439,26.768,7.439,1.813,100750.65
1.7856,-0.0996,-0.1943,-58.963,34.329,-16.585,1.7989,100750.21
1.6045,0.2153,-0.1699,-71.28,72.866,3.354,1.6278,100750.26
1.4785,-0.2466,-0.2651,-106.28,74.512,30.793,1.5222,100750.41
1.1348,-0.0474,-0.417,-41.89,13.963,6.585,1.2099,100750.89
0.4722,0.0747,-0.0801,21.22,-48.537,28.78,0.4847,100751.38
-0.0278,-0.2158,-0.0122,27.805,-81.585,24.39,0.2179,100751.0
0.2651,0.1489,0.375,54.512,-63.171,3.293,0.4828,100750.61
0.9678,-0.0703,0.3418,33.598,-44.512,-5.0,1.0288,100751.18
1.7363,-0.0283,-0.1313,27.012,-28.11,-21.098,1.7415,100751.1
1.7363,-0.0283,-0.1313,27.012,-28.11,-21.098,1.7415,100750.94
1.6685,-0.0127,-0.1704,56.159,51.159,-5.305,1.6772,100750.18
0.9824,-0.5098,-0.3379,42.378,49.878,-16.524,1.1572,100750.24
1.3799,-0.1353,-0.2954,68.72,44.878,-48.963,1.4176,100750.66
1.1904,-0.1938,-0.207,21.89,13.11,-29.512,1.2237,100749.98
0.4492,-0.2729,-0.208,11.037,-38.963,12.561,0.5653,100749.98
0.2612,0.0264,0.062,21.829,-55.0,30.061,0.2698,100749.46
0.5503,-0.1045,0.2153,-1.159,-76.402,22.561,0.6001,100749.46
1.1099,-0.4888,0.0669,-25.061,-72.622,2.317,1.2146,100749.69
1.6948,-0.4468,-0.0801,-24.268,-17.378,-21.829,1.7546,100750.25
1.3159,-0.0933,-0.1509,-12.134,13.11,-8.293,1.3278,100749.8
1.0947,-0.0513,-0.2192,-53.415,46.28,-6.28,1.1176,100750.07
1.3276,0.0161,-0.3359,-87.012,70.122,-6.951,1.3696,100749.55
0.9775,0.0537,-0.7402,-54.573,29.268,-3.841,1.2274,100750.52
0.4551,-0.0864,-0.1787,24.085,-4.939,11.646,0.4965,100750.99
0.2979,-0.1465,0.0728,56.037,-57.988,26.159,0.3398,100750.62
0.418,0.1235,0.146,85.549,-56.768,35.0,0.4596,100750.46
1.1099,-0.2007,0.1895,78.049,-4.756,-1.098,1.1437,100748.61
1.7793,0.1489,0.0132,59.634,9.756,-64.817,1.7856,100749.93
1.521,0.0225,-0.3062,17.5,31.098,-40.183,1.5517,100751.18
1.3018,-0.3784,-0.5298,10.915,10.122,-34.024,1.4555,100750.88
1.1729,-0.1011,-0.1743,69.756,23.841,-39.512,1.19,100750.52
0.8335,-0.2671,-0.1909,7.683,4.329,-31.585,0.8958,100750.9
0.6729,-0.1914,-0.3696,-29.939,-22.195,-9.085,0.7912,100750.8
0.3271,0.0469,0.0664,0.122,-43.232,43.537,0.3371,100749.47
0.4868,-0.2803,0.2114,9.085,-49.573,51.463,0.6002,100749.73
1.0684,-0.4272,0.2583,-8.171,-29.695,-8.293,1.1793,100749.06
1.626,-0.2534,0.0166,-40.854,28.171,-24.451,1.6457,100749.3
1.6743,-0.0674,-0.5532,-48.11,27.744,7.5,1.7646,100749.48
1.3354,0.0684,-0.3608,-50.915,18.537,25.915,1.385,100748.74
1.0059,0.0376,-0.2212,-78.354,21.585,6.585,1.0306,100749.2
0.7788,0.0522,-0.4321,-73.902,26.768,-5.061,0.8922,100749.66
0.3726,-0.2852,-0.2949,-46.768,-0.366,15.549,0.5542,100749.52
0.3662,-0.0757,-0.0972,19.39,-67.866,23.476,0.3864,100749.29
0.5654,0.1895,0.0508,75.915,-74.878,51.524,0.5985,100749.37
1.2241,-0.0781,0.1113,121.159,-34.329,42.866,1.2317,100749.65
1.333,0.3198,0.1416,62.622,11.89,-36.89,1.3781,100749.5
1.7856,-0.2524,-0.5864,-25.244,49.512,-67.317,1.8964,100749.13
1.7676,-0.5273,-0.7876,33.72,35.366,-30.976,2.0057,100748.51
1.0825,-0.0854,-0.0552,56.037,28.902,-42.256,1.0873,100748.77
0.9116,-0.1504,-0.2344,-64.268,19.024,-50.732,0.9532,100748.7
0.439,-0.1772,-0.2598,-61.585,-24.329,15.915,0.54,100748.52
-0.002,0.0254,0.2163,-1.951,-64.695,56.768,0.2178,100748.52
0.1353,-0.29,0.2134,-24.329,-34.695,49.085,0.3846,100749.53
0.9673,-0.5698,0.1094,-34.512,22.5,14.207,1.128,100748.41
1.6943,-0.5034,-0.1436,-57.744,35.854,-19.878,1.7734,100749.06
1.9585,0.0791,-0.5635,-82.561,67.561,-36.524,2.0395,100747.95
1.5962,0.2617,-0.3252,-74.695,54.085,28.171,1.6499,100747.87
1.0273,0.1528,-0.4521,-91.037,37.866,34.39,1.1328,100747.41
0.897,-0.0195,-0.4292,-24.573,22.927,3.841,0.9946,100748.2
0.2095,-0.1401,-0.0771,51.22,-95.671,26.768,0.2636,100749.66
-0.0425,0.1035,0.3823,89.39,-92.805,25.244,0.3984,100749.01
0.5918,0.0435,0.2744,66.951,-46.646,-28.537,0.6538,100748.64
1.4966,0.0127,0.0347,71.646,11.646,-38.598,1.497,100748.73
1.9766,0.1123,-0.3115,59.512,81.585,-13.598,2.0041,100748.94
1.4995,-0.375,-0.5718,14.329,38.293,-28.415,1.6481,100748.61
1.0527,-0.251,-0.1411,26.646,33.293,-71.707,1.0914,100748.48
1.3936,-0.1753,-0.1685,-13.415,44.39,-55.976,1.4146,100748.49
-0.188,-0.0303,0.2075,31.341,-94.085,72.622,0.2816,100749.02
0.3618,-0.145,0.2139,24.085,-70.122,64.024,0.4446,100748.91
0.7852,-0.5542,0.3589,-5.854,4.268,36.037,1.0259,100749.07
1.8501,-0.5093,-0.1235,-43.354,42.622,-40.549,1.9229,100748.35
1.9312,-0.0244,-0.4829,-62.622,55.122,-30.366,1.9908,100749.79
1.4824,0.0088,-0.146,-83.293,53.902,10.976,1.4896,100748.87
1.3994,0.0547,-0.2788,-92.073,61.829,-6.951,1.428,100748.56
1.1035,0.1558,-0.5034,-30.671,47.866,7.744,1.2229,100748.21
0.1382,-0.2705,-0.209,8.963,-43.902,54.451,0.3687,100748.44
-0.1162,-0.0771,0.0771,46.159,-64.695,24.268,0.1594,100748.98
0.2349,0.1924,0.2837,51.89,-41.22,7.073,0.4155,100748.4
0.7754,-0.106,0.2148,44.939,-24.878,7.256,0.8116,100747.48
1.9082,-0.3857,-0.1606,46.89,-10.732,-30.915,1.9534,100747.78
1.7451,0.3135,0.0293,56.037,27.805,-39.39,1.7733,100747.87
1.0415,-0.23,-0.3125,-16.037,46.524,-4.817,1.1114,100747.68
1.2622,-0.603,-0.6396,20.244,52.5,-17.866,1.5382,100747.79
1.4858,-0.0293,-0.0229,31.951,68.537,-56.585,1.4863,100746.78
0.7705,-0.1494,-0.1787,-34.451,-30.61,-48.841,0.8049,100746.15
0.3877,-0.0674,0.021,-11.28,-99.207,44.695,0.3941,100745.67
0.2178,-0.2373,0.272,-6.646,-95.488,72.683,0.4216,100745.67
0.8203,-0.4849,0.2764,-80.854,-31.89,0.488,0.9922,100747.05
1.4321,-0.3193,-0.2437,-141.402,-39.939,-79.085,1.4874,100746.72
1.5327,0.1382,-0.5059,-20.305,-48.354,-12.683,1.6199,100747.35
1.1812,0.0259,-0.4424,-26.829,29.512,43.415,1.2615,100747.06
1.3501,-0.042,-0.2588,-89.512,16.768,-18.11,1.3753,100746.48
1.0576,0.3706,-0.6011,-57.012,43.232,-8.171,1.2717,100746.05
0.3838,0.0488,-0.4697,-4.695,-2.622,48.171,0.6085,100747.09
0.5732,-0.2847,-0.1382,27.866,-43.841,26.768,0.6548,100747.1
0.1753,-0.123,0.2231,56.707,-54.451,32.622,0.3093,100746.89
0.7666,-0.0493,0.064,46.463,-14.207,10.61,0.7708,100747.2
1.979,0.4531,-0.4673,21.037,-31.098,-79.878,2.0833,100747.45
1.4658,0.0728,-0.3613,24.329,48.537,-56.951,1.5114,100747.74
1.1099,-0.4897,-0.7192,41.768,55.854,-26.585,1.4103,100747.98
1.0806,-0.3032,-0.1919,75.244,53.902,-17.5,1.1386,100748.04
1.1367,0.0166,-0.3301,17.5,35.183,-12.5,1.1838,100747.56
0.3706,0.0557,-0.2803,-29.39,-57.622,10.366,0.468,100746.98
-0.0215,-0.1367,0.2812,13.476,-48.354,49.085,0.3135,100747.55
0.5742,-0.2622,0.1255,-2.378,0.183,45.671,0.6436,100747.08
1.1133,-0.5063,0.2383,-63.171,25.793,26.098,1.246,100747.36
2.2124,-0.3452,-0.7749,-147.378,-24.085,-11.037,2.3695,100747.45
1.6792,-0.2339,-0.8643,-70.854,42.683,50.0,1.903,100747.41
0.8379,-0.2383,0.2114,6.524,133.476,67.805,0.8964,100747.85
0.7529,0.146,0.1128,-56.159,17.866,-12.866,0.7752,100747.43
0.5898,0.4849,-0.856,-91.89,-39.207,-50.183,1.147,100746.88
0.3623,-0.1992,-0.1299,-12.927,-64.39,-26.159,0.4334,100746.34
0.4595,-0.1138,0.2705,57.622,-52.317,7.195,0.5452,100746.3
1.04,-0.0713,-0.1362,43.659,-8.11,7.988,1.0513,100745.56
1.3301,0.1211,-0.0342,72.439,-33.841,-32.073,1.336,100745.59
1.3286,0.2036,-0.1113,34.207,-3.841,-75.0,1.3487,100746.02
1.7881,-0.1777,-0.9507,-20.0,-24.207,-69.756,2.0329,100745.94
1.5474,-0.2007,-0.8315,37.805,5.427,-24.817,1.7681,100747.15
0.9883,-0.146,-0.3857,55.488,54.756,37.5,1.0709,100747.29
0.2041,-0.1211,-0.188,25.976,-17.927,33.537,0.3028,100746.66
0.1016,-0.0337,0.1143,25.915,-8.171,32.683,0.1565,100746.69
0.1519,-0.2856,0.3159,17.378,14.695,64.695,0.4522,100746.82
0.8394,-0.2773,-0.0244,-41.22,8.963,33.049,0.8843,100747.8
1.8149,-0.4531,-0.1426,-74.451,37.683,-5.732,1.8761,100747.3
1.6348,-0.2031,-0.5122,-57.073,53.354,17.744,1.7251,100747.91
1.0327,-0.1704,-0.2998,-28.537,97.683,50.732,1.0888,100747.62
1.1592,-0.0591,-0.0669,-50.244,49.085,-14.756,1.1626,100747.9
1.1929,0.4102,-0.4082,-76.951,15.183,-38.293,1.3258,100747.26
0.4175,0.0264,-0.5698,-65.427,-35.732,-30.366,0.7069,100747.01
0.3999,-0.186,0.1411,46.159,-90.732,-25.976,0.4631,100747.56
0.8086,0.1177,-0.0293,74.512,-4.451,16.159,0.8176,100746.62
1.3979,-0.021,-0.1846,111.037,-2.256,1.28,1.4102,100745.91
1.2075,0.2695,0.1826,158.476,-11.951,-25.0,1.2506,100746.5
1.001,0.1167,0.0054,47.195,22.683,-61.524,1.0078,100746.7
1.6143,-0.2773,-0.3994,-44.085,-20.122,-107.256,1.6859,100747.59
1.7666,-0.187,-0.8926,-12.317,2.5,-47.134,1.9881,100747.73
0.6602,-0.0923,-0.4917,38.415,-13.963,48.476,0.8283,100748.36
-0.144,-0.1528,0.3657,34.573,-61.402,49.878,0.4217,100748.82
0.4722,-0.0688,0.1719,-19.756,-45.732,16.829,0.5072,100748.69
1.0908,-0.1313,0.1011,-46.951,3.598,35.061,1.1033,100748.95
1.1445,-0.3115,-0.0742,-97.073,17.256,19.268,1.1885,100748.66
1.7983,-0.2603,-1.0308,-68.537,12.439,-2.073,2.0891,100749.18
1.4419,-0.1406,-0.5586,31.951,96.463,35.366,1.5527,100749.07
1.0293,0.229,0.1772,20.061,81.951,17.866,1.0693,100748.49
0.4868,0.4478,-0.3052,-53.72,3.598,1.402,0.7284,100748.92
0.3032,0.123,-0.2173,-17.073,-36.22,6.768,0.3928,100749.63
0.4604,-0.1436,0.2441,24.207,-39.268,3.049,0.5406,100749.16
1.1157,-0.1816,-0.0894,42.439,-10.183,11.707,1.1339,100748.95
1.6865,0.0229,-0.3574,106.22,3.476,10.61,1.7241,100747.9
1.0498,0.2158,0.0186,116.159,19.39,-43.963,1.0719,100746.87
1.3843,-0.1626,-0.02,32.927,-25.122,-114.085,1.3939,100747.11
1.6006,-0.1479,-0.5767,-24.024,-30.061,-79.451,1.7077,100747.27
1.3081,0.0132,-0.9111,-25.671,15.732,0.244,1.5942,100748.16
0.2036,-0.0176,0.2275,8.354,-18.354,63.11,0.3058,100748.31
-0.4946,-0.1973,0.085,-49.39,-42.744,58.415,0.5392,100747.57
0.7095,-0.2124,0.2432,-21.89,-11.159,46.707,0.7795,100748.38
0.8945,-0.2451,-0.0435,-41.707,40.671,71.098,0.9285,100747.73
1.5493,-0.2891,-0.2446,-57.683,27.317,15.366,1.5949,100748.13
1.4629,-0.3306,-0.7798,-48.598,28.476,-14.085,1.6904,100747.55
1.5469,-0.0088,-0.1084,22.988,80.915,-16.037,1.5507,100747.75
1.2866,0.3716,-0.2881,-7.073,40.732,-8.476,1.3698,100748.52
0.7773,0.0186,-0.1655,-57.561,-59.024,-7.073,0.795,100749.21
0.1465,-0.2334,0.0068,-54.939,-100.976,4.756,0.2756,100749.36
0.7515,0.0835,-0.1797,-15.427,-89.939,-12.622,0.7771,100748.99
1.417,-0.2256,-0.3896,24.817,7.5,30.793,1.4868,100748.33
0.627,-0.2021,0.2529,108.841,29.268,20.732,0.7056,100747.7
1.1299,0.2617,-0.3325,63.841,-6.098,-78.293,1.2065,100747.73
2.042,-0.0703,-0.5981,80.366,88.963,-45.61,2.129,100747.26
0.8569,-0.2231,-0.1558,134.573,146.646,81.341,0.8991,100748.16
0.5151,-0.2485,-0.2808,20.732,-3.476,27.805,0.6372,100747.95
0.2788,-0.1621,0.0215,-45.122,-112.927,-30.183,0.3232,100748.55
0.6387,-0.478,0.1289,-49.573,-35.366,21.28,0.8081,100748.88
0.9897,-0.0181,-0.042,-52.317,-32.988,-5.732,0.9908,100748.48
1.355,-0.1465,-0.0649,-100.122,6.159,-7.378,1.3644,100747.6
1.2656,-0.5786,-0.2935,-79.939,75.671,21.646,1.4222,100747.79
1.437,-0.3555,-0.1128,-31.402,67.561,-53.78,1.4846,100748.05
1.2925,0.1948,-0.1118,7.317,15.061,-65.0,1.3119,100748.26
0.4111,0.3999,-0.3667,-10.427,-23.963,3.537,0.6807,100747.79
0.1528,-0.2397,-0.1885,-39.268,-58.232,2.317,0.3411,100748.66
0.5322,0.1509,-0.0752,36.463,-40.61,5.061,0.5583,100748.84
1.7124,-0.1108,-0.1572,68.232,4.573,-10.549,1.7232,100749.22
1.6006,0.1729,-0.0107,104.329,-17.134,-42.744,1.6099,100749.25
0.9829,0.2832,-0.2251,66.28,23.902,-44.756,1.0474,100749.99
1.6064,-0.2651,-0.3965,11.585,9.451,-78.476,1.6758,100749.59
1.3267,-0.2368,-0.585,39.512,43.963,-5.366,1.4691,100748.66
0.2339,-0.0054,-0.3252,14.451,-41.28,22.073,0.4006,100748.61
-0.4526,-0.2153,0.4014,-33.354,-63.902,51.463,0.6421,100747.67
0.3325,-0.2222,-0.1357,-45.061,-40.488,31.768,0.4223,100748.6
1.9316,-0.0391,-0.0068,-17.256,26.585,10.122,1.932,100747.7
1.269,-0.5532,-0.2163,-66.098,60.0,49.634,1.4012,100748.62
1.3589,-0.4946,-0.2432,-46.159,73.11,11.951,1.4664,100749.08
1.4644,0.2368,-0.001,-48.293,40.366,-32.927,1.4834,100749.3
0.8271,0.4668,-0.2632,-82.195,2.073,-24.939,0.9856,100749.57
0.417,-0.1689,-0.5181,-45.549,-41.829,-8.78,0.6862,100749.16
0.1191,-0.1479,0.0869,28.78,-34.573,23.537,0.2089,100749.22
0.9341,0.2007,-0.0908,7.866,-50.0,-3.963,0.9597,100749.62
1.7871,-0.3491,-0.2749,41.159,13.171,35.488,1.8415,100749.45
0.7285,0.2603,0.1626,127.805,30.671,31.646,0.7905,100748.47
1.4023,0.0962,-0.4062,29.512,-24.085,-91.768,1.4632,100747.95
2.21,-0.0273,-0.9624,-0.061,-0.305,-63.72,2.4106,100748.2
0.7725,-0.3887,-0.1284,72.256,16.28,63.476,0.8742,100748.24
0.0801,-0.1763,0.1821,38.963,-41.402,23.659,0.2658,100748.43
-0.3291,-0.0625,0.1138,-56.89,-112.195,-20.915,0.3538,100748.54
0.811,-0.3735,-0.1831,-70.732,-43.171,-3.72,0.9115,100749.16
1.6494,-0.3447,-0.0649,-56.463,30.732,15.549,1.6863,100748.61
1.1924,-0.4844,0.002,-85.915,38.963,27.073,1.287,100749.21
1.1919,-0.3218,-0.5166,-63.415,46.28,19.817,1.3383,100749.54
1.3569,0.0034,-0.2817,-46.463,61.098,4.695,1.3859,100749.89
1.0283,0.2407,-0.2612,-58.415,52.683,11.463,1.0879,100749.8
0.6812,0.1035,-0.2002,-48.293,4.573,14.878,0.7175,100749.72
0.3374,-0.1045,0.1426,-42.5,-66.951,1.463,0.3809,100748.65
0.3936,0.0488,-0.062,-45.549,-48.293,2.683,0.4014,100747.26
1.582,-0.207,-0.3003,-9.634,8.902,9.329,1.6235,100747.2
1.3081,0.1348,0.0957,64.939,15.793,13.171,1.3185,100748.03
1.1021,0.1855,-0.1973,27.439,7.866,-24.573,1.1348,100747.9
1.6055,-0.2197,-0.7949,-29.451,-12.378,-76.646,1.8049,100748.18
1.3853,-0.0044,-0.3799,6.646,5.61,18.598,1.4364,100748.53
0.2319,-0.2764,-0.2271,10.366,22.622,93.232,0.4263,100747.52
0.4023,-0.126,0.0576,-6.524,-48.902,-8.415,0.4255,100748.02
0.4722,-0.1245,-0.1665,-38.476,-82.195,-41.159,0.5159,100747.65
1.0869,-0.2534,-0.3525,-28.171,-36.89,4.756,1.1704,100747.89
1.5928,-0.3936,-0.2148,-66.768,21.89,20.854,1.6547,100747.07
0.9961,-0.2749,-0.4531,-65.183,34.146,36.768,1.1283,100747.44
0.7988,-0.0503,-0.0044,-26.402,28.902,36.585,0.8004,100747.48
0.728,-0.0029,-0.0562,-85.061,35.122,30.976,0.7302,100748.12
0.6123,0.0376,-0.313,-106.402,35.549,23.963,0.6887,100748.36
0.6768,0.0918,-0.4346,-63.11,36.768,12.988,0.8095,100749.02
1.0898,-0.0103,-0.4341,-10.793,45.061,-6.341,1.1732,100749.27
0.8413,0.084,-0.0908,46.951,-7.012,-30.671,0.8504,100750.21
1.1875,0.0088,-0.0942,84.268,-9.939,-29.756,1.1913,100749.8
1.5601,0.2725,-0.04,117.256,-10.549,-22.744,1.5842,100749.11
1.6978,0.1055,-0.3438,45.732,13.354,-34.512,1.7354,100749.09
1.2949,-0.2051,-0.5259,24.939,37.805,-35.793,1.4126,100749.32
1.0469,-0.0415,-0.2871,50.061,8.049,-37.012,1.0863,100749.37
0.583,-0.2197,-0.0098,20.854,12.317,-1.402,0.6231,100748.41
0.5107,-0.2466,-0.0938,-44.085,-17.561,-2.866,0.5748,100748.45
0.1807,-0.1533,0.0732,-36.585,-48.963,23.049,0.248,100748.22
1.126,-0.0693,-0.2837,-30.793,-37.866,8.476,1.1632,100747.94
1.4927,0.0571,-0.1797,-26.28,-24.573,20.0,1.5045,100747.72
0.9082,-0.2344,0.1265,-62.073,7.195,54.085,0.9464,100746.7
1.292,-0.1699,-0.4282,-106.037,31.585,22.5,1.3717,100747.66
0.9692,0.3589,-0.0527,-31.951,49.329,3.78,1.0349,100748.23
0.6782,0.1758,-0.458,-31.22,6.098,-8.598,0.8371,100748.57
0.1436,-0.0386,-0.1328,5.427,-59.39,-47.378,0.1993,100748.58
0.5771,0.0156,-0.0029,53.171,-43.537,-37.317,0.5774,100748.45
1.7749,0.0664,-0.0884,107.439,28.293,16.098,1.7783,100747.76
1.8037,0.5376,0.0283,93.841,22.561,-12.073,1.8823,100748.21
1.2983,0.251,-0.6953,25.305,31.28,-26.28,1.494,100747.44
1.1162,-0.167,-0.2466,55.488,33.841,-12.134,1.1553,100747.24
0.876,-0.3076,0.0288,51.524,30.488,-6.159,0.9289,100747.84
0.5176,-0.2188,-0.2012,37.988,-9.146,-5.793,0.5968,100748.42
0.188,0.0273,0.1235,38.354,-63.598,-2.073,0.2266,100748.36
0.5703,-0.1655,0.061,11.28,-88.293,26.22,0.597,100748.07
1.5098,-0.1162,-0.0874,-25.61,-24.146,26.463,1.5168,100748.6
1.2783,-0.3696,0.0005,-89.268,-15.122,17.5,1.3307,100748.38
1.1943,-0.0479,-0.3809,-69.024,41.951,27.134,1.2545,100748.83
1.5098,0.0981,-0.396,-80.0,55.183,16.463,1.5639,100748.78
1.3232,0.2163,-0.4731,-93.963,39.207,2.866,1.4218,100748.26
0.646,0.3145,-0.4409,-50.305,19.207,21.768,0.843,100748.75
-0.0127,-0.0405,-0.1763,-14.939,-10.366,14.146,0.1813,100749.84
0.0806,-0.0273,0.0571,17.744,-29.207,-18.232,0.1025,100750.05
0.9121,0.084,-0.0117,61.768,-9.207,-9.512,0.916,100749.33
2.0562,0.2896,-0.0972,113.963,24.268,-11.098,2.0787,100748.9
1.7002,0.4697,0.0737,68.537,47.622,-41.341,1.7654,100748.95
1.2617,0.0015,-0.3315,27.256,69.329,-35.122,1.3046,100748.37
1.353,-0.3604,-0.3589,61.037,48.841,-6.402,1.4455,100748.2
0.8794,-0.2729,-0.2832,49.207,39.573,-4.39,0.9633,100747.95
0.3193,0.0688,-0.1724,-6.463,-37.805,-28.902,0.3694,100747.38
0.0845,0.0122,0.1558,-17.744,-86.829,10.122,0.1776,100747.09
0.5767,-0.3306,0.0669,-13.537,-69.329,44.207,0.668,100747.12
1.7012,-0.1504,-0.1172,-30.793,-36.159,34.695,1.7118,100746.63
1.3667,-0.2476,-0.0762,-96.28,-16.707,20.0,1.391,100746.41
1.1948,-0.1108,-0.2373,-92.927,32.134,36.402,1.2232,100746.73
1.6006,-0.1011,-0.3311,-92.073,72.927,62.195,1.6376,100747.47
1.1206,0.1616,-0.4863,-74.39,76.585,57.744,1.2322,100748.39
0.7319,0.3008,-0.4497,-50.61,60.244,1.22,0.9102,100749.33
0.123,0.0791,0.0005,0.488,-54.634,-35.61,0.1463,100749.28
0.2031,0.1069,0.2705,72.317,-69.939,-34.451,0.3548,100749.14
0.9663,0.0679,0.2124,101.037,-22.134,-17.378,0.9917,100748.41
1.8672,0.3027,0.0337,110.793,11.585,-32.988,1.8919,100748.59
1.9336,0.3203,-0.3379,44.878,67.256,-29.39,1.9889,100748.48
1.4424,-0.1147,-0.5518,32.561,52.622,-15.671,1.5486,100748.3
1.084,-0.2573,-0.125,42.683,17.927,-14.268,1.1211,100749.14
0.7603,-0.3555,-0.1934,12.134,13.963,-12.378,0.8612,100749.03
0.2256,-0.0576,-0.0581,8.598,-90.366,-7.805,0.24,100748.95
0.0479,-0.1401,0.2139,21.829,-120.0,30.61,0.2601,100748.63
1.0796,-0.187,0.2056,0.488,-22.195,63.537,1.1148,100748.26
1.9111,-0.373,0.0845,-109.878,8.171,11.89,1.949,100747.98
1.2119,-0.2939,-0.2051,-99.085,5.183,18.171,1.2638,100748.29
1.3887,0.1426,-0.3345,-68.11,58.171,30.854,1.4355,100748.27
1.6353,0.3506,-0.4756,-123.963,63.049,5.305,1.7387,100747.75
0.8828,0.2837,-0.5117,-85.549,-18.902,-9.329,1.0591,100746.98
-0.0889,0.1401,0.0059,11.951,-80.0,-4.024,0.166,100747.53
0.0244,0.0034,0.165,47.622,-65.671,-11.098,0.1669,100747.83
0.7422,-0.0381,0.0908,65.427,-50.61,-21.951,0.7487,100747.68
1.874,0.0024,-0.0396,121.22,25.976,-15.488,1.8744,100746.93
1.5654,0.5562,0.0693,93.415,46.28,-39.451,1.6627,100747.38
1.4668,0.1245,-0.9194,-3.72,81.098,-52.561,1.7356,100747.71
1.5059,-0.1948,-0.3516,86.341,29.817,-27.012,1.5586,100748.58
0.7734,-0.4082,0.0146,108.659,-28.841,0.305,0.8747,100749.23
0.1172,-0.1748,0.041,28.598,-85.244,-28.476,0.2144,100748.49
0.1426,0.0024,0.0034,-24.146,-99.878,-15.61,0.1426,100748.43
0.4717,-0.3428,0.0791,-13.841,-54.817,56.22,0.5884,100748.77
1.6084,-0.3213,-0.0479,-51.829,5.549,45.122,1.6409,100749.03
1.5801,-0.2852,-0.4014,-122.5,42.561,7.561,1.655,100749.09
1.1138,-0.1177,-0.5361,-71.159,82.195,32.378,1.2417,100749.13
1.5962,0.2612,-0.3345,-47.927,68.598,8.598,1.6516,100748.8
1.312,0.3633,-0.541,-85.244,20.671,-18.354,1.4649,100749.42
0.2393,0.0,-0.2393,-36.28,-48.659,-20.671,0.3384,100748.62
-0.127,0.0195,0.21,40.793,-66.037,-24.573,0.2461,100748.27
0.7046,0.2095,0.0659,67.256,-34.024,-18.11,0.738,100748.12
1.5728,0.1128,-0.144,104.024,34.756,8.476,1.5834,100747.78
1.6162,0.4609,-0.0923,75.793,38.963,-29.329,1.6832,100746.64
1.3252,-0.0586,-0.7285,-27.805,68.293,-43.232,1.5134,100746.91
1.396,-0.1982,-0.3994,9.817,69.756,-32.744,1.4655,100746.99
1.0288,-0.1948,-0.1274,27.439,37.866,3.232,1.0548,100747.55
0.4717,0.0205,-0.1216,6.951,-40.915,14.817,0.4875,100747.7
0.1133,-0.0327,0.1001,-7.866,-85.183,26.768,0.1547,100748.34
0.542,-0.1548,0.1289,-4.878,-64.085,46.463,0.5782,100748.69
1.5972,-0.2817,-0.0068,-49.268,10.671,60.854,1.6218,100748.21
1.6172,-0.541,-0.2729,-115.732,29.634,9.39,1.727,100748.21
1.2495,0.0776,-0.4438,-87.317,66.22,15.061,1.3283,100748.09
1.5239,0.2788,-0.3057,-98.171,55.671,16.22,1.5791,100748.13
1.1802,0.2407,-0.375,-86.28,4.268,7.927,1.2615,100747.77
0.2969,0.0923,-0.2495,1.829,-39.024,12.927,0.3986,100747.52
-0.1846,0.0513,0.1372,67.195,-80.549,-24.817,0.2356,100747.34
0.1812,0.165,0.1514,71.402,-53.902,-32.439,0.288,100747.05
1.5195,0.1113,-0.0596,81.951,13.72,-16.341,1.5248,100747.84
2.1685,0.373,0.0146,109.146,37.439,-34.634,2.2004,100747.68
1.4268,0.2241,-0.3267,31.341,54.573,-62.439,1.4807,100748.32
1.5469,-0.2314,-0.543,37.927,75.549,-45.183,1.6557,100748.05
0.9292,-0.312,-0.1074,63.659,17.073,8.476,0.9861,100746.98
0.7656,-0.2207,-0.2031,4.634,-21.524,23.72,0.8223,100747.55
-0.2397,-0.0132,0.1113,-12.012,-97.622,27.683,0.2647,100746.86
0.0039,-0.1206,0.374,-24.329,-50.366,41.707,0.393,100746.83
0.8433,-0.3657,-0.1982,-49.512,-10.0,53.415,0.9403,100746.69
2.0962,-0.4824,-0.4214,-2.256,33.78,57.317,2.1919,100746.84
1.8799,-0.0605,-0.2021,-73.171,62.561,-7.317,1.8917,100746.84
1.519,0.1118,-0.1514,-183.476,65.366,-25.061,1.5307,100746.84
1.2202,0.1143,-0.4575,-134.634,48.415,9.085,1.3082,100746.7
0.6641,0.5073,-0.2949,-12.622,11.28,24.268,0.8862,100746.72
0.0254,0.0771,-0.1333,28.78,-36.402,-0.427,0.1561,100747.22
0.0352,0.0684,0.147,73.11,-55.793,-36.585,0.1659,100747.84
0.5767,0.2021,0.2026,106.951,-44.024,-32.744,0.6438,100747.95
1.7988,-0.0635,-0.1479,132.012,11.037,2.012,1.806,100747.52
1.8037,0.2578,-0.1372,96.524,14.146,-32.927,1.8272,100747.59
1.4683,-0.0532,-0.6543,-6.159,79.39,-85.854,1.6083,100747.88
1.4395,0.0522,-0.1802,39.329,67.927,-60.61,1.4516,100748.73
0.7798,-0.1758,-0.252,17.683,5.244,-14.146,0.8381,100748.98
0.4521,-0.0728,-0.1348,18.72,-48.171,17.561,0.4774,100749.8
-0.1074,-0.1816,0.291,14.939,-97.317,45.793,0.3595,100748.92
0.498,-0.2861,0.2446,-34.146,-39.756,32.5,0.6243,100748.4
1.8755,-0.29,-0.1396,-52.195,18.841,33.415,1.9029,100748.38
1.873,-0.2617,-0.4253,-56.89,44.024,13.049,1.9385,100748.48
1.4878,0.1777,-0.3052,-95.671,74.024,-4.207,1.5291,100748.3
1.5693,0.3745,-0.2324,-128.537,30.488,-13.598,1.6301,100748.05
0.8179,0.3501,-0.3188,-90.854,-19.878,2.866,0.9451,100747.38
-0.0537,0.1377,-0.1206,8.72,-52.927,26.707,0.1908,100746.74
-0.2134,0.0181,0.1436,78.415,-47.866,-14.39,0.2578,100746.5
0.2534,0.1523,0.2163,90.061,-33.171,-46.22,0.3664,100746.47
1.7739,0.2153,0.0439,105.305,-2.317,-30.366,1.7875,100747.05
2.0508,0.5063,-0.0298,85.61,26.524,-10.0,2.1126,100747.86
1.3203,-0.0542,-0.7158,-10.0,104.268,-37.073,1.5029,100748.36
1.6948,0.1738,-0.3169,74.512,84.329,-48.171,1.7329,100748.71
1.1792,-0.1245,-0.0278,70.366,-4.39,18.72,1.1861,100748.88
0.373,-0.5259,-0.2231,-6.037,-53.171,36.159,0.6823,100748.51
-0.1631,-0.104,0.0874,-5.366,-84.329,-18.293,0.2123,100747.72
0.1875,0.0146,0.1987,-36.037,-29.268,14.817,0.2736,100746.64
1.041,-0.1772,-0.0098,-59.573,-26.098,52.317,1.056,100747.2
2.1406,-0.335,-0.3027,-88.902,-16.402,34.085,2.1877,100747.01
1.3647,-0.1816,-0.2061,-97.134,16.829,12.317,1.3921,100746.96
1.376,0.3066,-0.4429,-87.866,57.866,21.585,1.4777,100746.94
1.3154,0.2075,-0.5371,-115.305,43.293,10.976,1.4359,100748.28
0.7095,0.3691,-0.2603,-53.537,-25.061,3.293,0.841,100748.31
0.1499,0.1396,-0.0317,4.39,-40.122,7.378,0.2073,100747.69
0.0723,0.0884,0.3027,59.329,-63.963,-6.951,0.3235,100747.61
0.7422,0.0537,0.0889,72.195,-36.463,-14.451,0.7494,100747.8
1.5874,0.0771,-0.3916,106.159,-10.61,-39.573,1.6368,100747.2
1.6885,0.687,0.1396,117.439,61.402,-52.073,1.8282,100746.73
1.6226,0.0503,-0.6318,18.476,86.22,-66.768,1.742,100748.14
1.1992,-0.1279,-0.3564,45.427,50.488,-10.793,1.2576,100748.3
1.0312,-0.2681,-0.2798,24.512,36.585,11.829,1.1016,100748.18
0.9067,-0.0786,-0.3145,5.61,-10.854,-2.5,0.9629,100748.35
-0.2271,-0.1421,0.2686,35.0,-81.22,3.11,0.3793,100748.73
0.2842,-0.2563,0.4092,16.341,-28.232,41.707,0.5603,100748.51
1.415,-0.1724,-0.1172,-39.268,12.683,45.671,1.4303,100747.97
2.022,-0.2046,-0.3506,-96.585,10.61,12.378,2.0623,100747.96
1.2129,0.041,-0.2573,-122.134,29.573,3.293,1.2406,100748.3
1.2905,0.252,-0.1729,-136.646,49.268,3.293,1.3262,100748.68
1.4038,0.519,-0.3306,-108.293,47.317,10.61,1.5328,100748.24
0.3706,0.0864,0.0884,51.159,-22.012,-26.951,0.3907,100747.12
1.6709,0.126,-0.0811,108.354,-3.232,-15.366,1.6776,100747.44
2.2031,0.583,0.0283,144.268,46.037,-10.61,2.2791,100747.42
1.4023,0.2246,-0.3105,43.415,55.488,-41.341,1.4538,100748.39
1.4326,-0.2007,-0.4346,59.939,44.39,-25.549,1.5105,100748.9
1.1006,-0.3818,-0.0571,68.232,16.89,11.951,1.1663,100748.77
0.6523,-0.0449,-0.0474,21.585,-29.207,-14.146,0.6556,100748.17
-0.1963,-0.0063,0.1396,3.963,-102.134,23.232,0.241,100749.09
0.2402,-0.2944,0.188,-4.695,-47.683,49.268,0.424,100748.31
1.4214,-0.2163,-0.1396,-50.0,-14.146,38.049,1.4445,100748.34
1.7046,-0.4302,-0.1221,-107.073,-21.524,55.549,1.7623,100747.99
1.1714,-0.3198,-0.4868,-136.402,15.488,57.927,1.3082,100747.11
1.4595,0.1025,-0.2979,-113.72,67.378,11.646,1.4931,100747.69
1.5342,0.3789,-0.2397,-75.061,73.171,2.866,1.5984,100747.13
0.7236,0.3604,-0.1675,-22.439,-2.927,34.085,0.8256,100747.33
-0.2573,-0.1245,-0.2124,4.146,-75.305,7.805,0.3561,100746.37
-0.001,0.1616,0.207,90.793,-61.524,-42.805,0.2626,100746.38
1.1401,0.001,-0.0386,132.012,-39.39,-20.549,1.1408,100746.15
2.5229,0.2568,-0.1616,168.841,-12.012,-30.732,2.5411,100745.86
1.3931,0.3306,0.0054,1.829,24.329,-77.622,1.4318,100745.99
0.9341,-0.2998,-0.7119,-8.659,44.207,-53.598,1.2121,100745.98
1.1821,-0.1475,-0.2603,96.402,50.61,-29.085,1.2194,100745.71
0.9185,-0.2012,-0.04,48.049,17.5,26.463,0.9411,100745.64
-0.0083,-0.0908,0.3115,9.268,-67.439,17.805,0.3246,100745.38
1.0908,-0.3574,0.0239,-25.854,-14.146,28.902,1.1481,100745.29
2.3247,-0.3013,-0.5361,-42.866,13.902,23.902,2.4047,100746.08
1.1362,-0.0479,-0.1567,-120.488,25.61,0.732,1.148,100746.18
1.23,-0.1074,-0.4268,-144.573,55.854,1.646,1.3063,100746.01
1.6709,0.1948,-0.5674,-71.463,56.829,38.049,1.7753,100746.75
0.7378,0.4258,-0.4844,-3.841,23.902,59.146,0.9799,100747.19
-0.1177,0.082,-0.1738,14.817,-44.024,20.549,0.2254,100747.37
-0.1177,-0.0518,0.104,30.549,-49.268,-30.0,0.1654,100747.14
0.6289,0.2168,0.0513,87.134,-9.939,-27.927,0.6672,100746.6
1.875,0.0142,-0.0488,125.366,2.744,-23.293,1.8757,100746.32
1.7026,0.5195,0.2769,97.256,45.793,-40.427,1.8015,100746.36
1.2515,-0.2378,-0.3652,-9.39,97.195,-55.976,1.3252,100746.26
1.7568,-0.3115,-0.4092,64.756,85.183,-50.183,1.8306,100745.19
1.3159,-0.0947,0.0737,65.915,53.293,-21.463,1.3214,100745.63
0.5737,-0.2632,-0.2793,-40.854,-48.293,-31.159,0.6902,100746.34
-0.2349,0.0493,0.04,-7.561,-125.549,-13.598,0.2433,100747.51
0.0781,-0.1133,0.2461,8.963,-75.488,33.841,0.282,100746.89
1.3555,-0.3994,0.1201,-7.5,-16.341,63.841,1.4182,100746.55
2.5508,-0.4072,-0.1704,-11.159,-27.439,43.963,2.5887,100746.78
1.1616,-0.0044,-0.0664,-90.793,-0.061,15.244,1.1635,100746.34
0.9058,0.0938,-0.1851,-159.634,53.841,38.232,0.9292,100746.62
1.3569,0.0825,-0.6719,-163.293,76.707,36.402,1.5164,100746.97
1.1006,0.2861,-0.646,-61.951,77.927,35.793,1.3079,100748.11
0.1519,0.2134,-0.0122,14.085,-55.61,7.5,0.2622,100747.7
0.0112,0.3149,0.1802,47.195,-102.744,-41.951,0.363,100747.78
0.3589,0.1021,0.3916,97.439,-35.122,-14.207,0.5409,100747.84
2.0767,0.0151,0.1108,139.329,31.402,-6.707,2.0797,100748.02
1.9399,0.126,-0.5386,45.183,50.183,11.524,2.0173,100747.53
1.0322,-0.3872,-0.7432,44.146,36.585,-30.915,1.3296,100748.51
1.5942,0.0835,0.0596,100.122,43.598,-56.524,1.5975,100748.26
1.0776,-0.3286,-0.0601,24.024,1.524,-5.305,1.1282,100748.45
0.3604,-0.3589,-0.2939,-8.963,-82.317,-19.817,0.5874,100748.7
-0.0103,0.0825,0.1138,-1.341,-76.22,-18.598,0.1409,100747.91
0.1738,-0.1865,0.2798,-12.195,-45.061,42.195,0.3785,100748.08
1.1787,-0.4595,0.2192,-35.549,-5.549,60.183,1.284,100747.31
1.9263,-0.3721,-0.1206,-100.183,37.744,-25.793,1.9656,100747.26
1.6479,-0.1025,-0.4448,-120.122,65.976,-8.963,1.71,100746.7
1.3833,0.1479,-0.3496,-120.122,67.988,59.146,1.4344,100746.55
1.4546,0.1621,-0.3755,-140.854,59.695,26.28,1.511,100747.3
0.6089,0.2881,-0.3521,-44.024,-28.476,24.207,0.7601,100746.88
-0.0488,0.0498,-0.0938,20.793,-70.0,7.073,0.1168,100747.04
0.1001,0.1597,0.1099,41.159,-54.268,-35.305,0.2181,100747.19
0.8765,0.1431,0.1885,65.305,-35.183,-36.829,0.9078,100747.18
2.0654,0.0889,0.0967,107.988,10.061,5.427,2.0696,100746.52
1.4292,0.0591,-0.3496,19.634,49.085,-17.744,1.4725,100746.41
1.1875,-0.1387,-0.6924,31.585,71.159,-55.244,1.3816,100747.06
1.5132,0.0752,-0.042,113.232,60.854,-33.354,1.5156,100746.83
0.8579,-0.2856,0.0435,32.988,8.841,1.646,0.9053,100746.38
0.3735,-0.2554,-0.3472,-5.854,-80.244,5.488,0.5703,100746.78
0.1172,0.123,0.0078,27.073,-57.073,19.085,0.1701,100746.87
0.2563,-0.2378,0.2017,-8.598,-34.512,38.659,0.4036,100746.8
1.3198,-0.3081,0.1025,-29.329,-1.585,15.366,1.3592,100747.23
1.9497,-0.5552,-0.0347,-57.378,13.049,2.439,2.0275,100746.93
1.5439,0.0723,-0.4927,-98.11,53.476,0.244,1.6223,100746.96
1.582,0.2944,-0.4585,-115.244,77.256,16.524,1.6732,100747.48
1.415,0.0679,-0.3906,-92.012,33.659,15.305,1.4695,100747.62
0.4097,0.1812,-0.2544,-2.622,-35.427,28.659,0.5151,100747.6
-0.126,0.1079,-0.0386,35.427,-49.451,0.244,0.1703,100746.97
0.1431,0.0083,0.1152,47.683,-43.171,-41.829,0.1839,100746.62
0.8003,0.145,0.3828,98.354,-18.293,-8.659,0.8989,100746.36
2.1987,0.2598,0.1235,94.939,42.256,4.695,2.2175,100746.28
1.5122,0.1528,-0.3574,-17.5,59.878,-9.329,1.5614,100746.87
1.2988,-0.3271,-0.6943,25.183,93.659,-50.549,1.5087,100748.27
1.3638,-0.0029,0.0854,133.598,29.024,-25.915,1.3664,100747.6
1.0742,-0.3228,0.0625,47.012,-18.293,12.561,1.1234,100747.1
0.3242,-0.3271,-0.3081,-15.854,-61.341,-7.927,0.5541,100747.23
-0.061,0.2974,0.083,17.744,-53.049,13.659,0.3147,100747.09
0.1187,-0.2192,0.1689,-4.878,-50.976,37.012,0.3011,100747.11
1.5259,-0.5537,0.0283,-20.061,3.902,12.744,1.6235,100746.99
1.5259,-0.5537,0.0283,-20.061,3.902,12.744,1.6235,100747.41
2.2422,-0.1831,0.0337,-45.976,2.195,-15.793,2.2499,100746.83
1.3208,-0.2983,0.084,-109.451,42.622,8.11,1.3567,100746.92
1.6294,-0.0034,-0.2544,-107.622,66.829,26.585,1.6491,100745.59
1.5308,0.2744,-0.5605,-99.451,38.78,26.463,1.6531,100746.09
0.4575,0.354,-0.3022,-31.22,-26.707,19.146,0.6527,100746.5
-0.2158,0.0479,0.0151,6.28,-52.256,11.463,0.2216,100746.15
0.0767,-0.1357,0.0366,22.988,-38.78,-10.732,0.1601,100746.4
0.7446,0.123,-0.062,60.366,-27.317,-32.744,0.7573,100746.34
2.6182,0.0498,0.1279,120.915,29.634,-46.341,2.6218,100747.15
1.2222,0.6113,0.5396,87.561,3.659,-15.244,1.4692,100746.41
0.9331,-0.1265,-0.6934,-58.171,56.463,-15.671,1.1694,100746.59
1.5181,-0.2471,-0.5288,46.768,63.354,-35.549,1.6264,100745.73
0.9463,-0.1279,0.2305,87.683,25.305,-4.634,0.9823,100746.21
0.6392,-0.3354,-0.1865,11.951,-47.744,-11.585,0.7455,100747.56
0.1465,0.0728,0.0142,26.28,-76.28,8.963,0.1642,100746.59
0.1821,-0.1567,-0.0176,3.659,-81.951,40.366,0.2409,100746.59
1.3843,-0.3301,-0.0063,-24.634,-39.451,45.732,1.4231,100745.61
2.0054,-0.4873,0.002,-105.244,23.415,13.476,2.0637,100745.62
1.1177,-0.23,-0.0879,-105.854,12.683,5.915,1.1445,100745.27
1.0415,0.0449,-0.1353,-50.549,19.207,35.854,1.0512,100745.87
1.3691,0.1523,-0.3726,-94.634,56.098,2.134,1.4271,100746.7
1.165,0.2266,-0.6274,-62.805,45.915,18.537,1.3425,100746.45
0.2236,0.1211,-0.2383,-18.598,-37.866,29.146,0.3485,100746.26
0.002,-0.0742,-0.0728,4.634,-71.341,-34.146,0.1039,100746.73
0.6963,0.2769,-0.0459,53.537,-54.085,-49.39,0.7507,100747.1
2.04,0.0151,-0.0703,50.793,25.671,-50.305,2.0413,100746.63
1.6309,0.3672,0.1255,74.634,22.622,-66.585,1.6764,100746.77
1.0166,0.2148,-0.2471,76.646,2.5,-20.122,1.068,100746.51
1.3735,-0.2319,-0.3398,72.012,14.024,25.915,1.4338,100747.3
0.7588,-0.3682,-0.1455,48.049,30.244,42.439,0.8558,100747.52
0.6196,-0.375,-0.5171,-30.854,27.378,-5.549,0.8899,100747.93
0.4219,0.0376,-0.2964,2.073,-68.11,-17.927,0.5169,100747.12
0.3008,-0.1108,0.0557,35.122,-103.293,35.0,0.3254,100747.12
1.2231,-0.3047,0.0171,-5.488,-48.415,44.268,1.2606,100747.77
1.5806,-0.4194,-0.1626,-96.951,5.671,9.634,1.6433,100747.14
1.0586,-0.2603,-0.3794,-80.305,23.902,15.183,1.1543,100747.65
1.2207,-0.0356,-0.3135,-34.268,49.146,23.841,1.2608,100747.66
1.2432,0.1406,-0.1548,-66.098,77.5,-2.134,1.2606,100747.41
0.854,0.2554,-0.2119,-69.146,67.317,3.963,0.9162,100747.98
0.5469,0.1772,-0.2998,-25.732,20.61,8.293,0.6484,100747.41
0.2686,0.1201,-0.1348,11.098,-34.329,0.61,0.3236,100747.59
1.0679,-0.061,-0.1821,57.561,-6.341,1.159,1.085,100747.62
1.5981,0.0186,0.0049,127.073,15.976,-30.366,1.5983,100747.38
1.5776,0.4893,0.0083,119.573,43.415,-73.232,1.6518,100747.59
1.874,0.1201,-0.355,79.878,32.622,-20.305,1.9111,100747.36
1.0845,-0.291,-0.1426,73.11,2.683,29.756,1.1319,100747.58
0.543,-0.6279,-0.0371,16.951,22.134,15.061,0.831,100748.35
0.0161,-0.2192,-0.1357,-42.317,-10.183,-25.549,0.2584,100747.31
0.2437,0.0752,-0.0469,-12.561,-57.683,14.634,0.2593,100747.04
0.4097,-0.2817,0.0659,23.293,-102.317,79.024,0.5015,100746.45
1.7026,-0.3545,0.0571,-48.476,-8.537,29.024,1.7401,100747.51
1.9155,-0.5054,-0.0669,-121.89,28.11,6.585,1.9822,100747.55
1.1943,-0.3643,-0.3062,-85.122,28.11,22.073,1.2856,100748.08
1.438,-0.0068,-0.1494,-50.366,16.707,19.39,1.4457,100748.24
1.5381,0.2852,-0.5649,-105.549,38.11,-21.829,1.6632,100747.6
0.4604,0.4683,-0.3584,-67.256,-16.098,-7.805,0.7482,100746.77
-0.377,-0.019,0.0049,-8.11,-94.39,15.0,0.3775,100746.51
0.1733,0.0918,0.1372,69.573,-78.171,-13.049,0.2394,100747.05
1.1562,0.0,-0.106,108.841,-14.634,-18.78,1.1611,100747.6
1.8833,0.2002,-0.0576,152.805,27.134,-26.707,1.8948,100747.13
1.3003,0.1841,-0.2739,26.585,46.524,-39.146,1.3415,100747.02
1.7349,-0.4565,-1.0435,-13.902,92.439,-61.28,2.0753,100747.07
1.4932,-0.0112,-0.0347,95.427,54.817,-19.756,1.4936,100747.09
0.7158,-0.4243,-0.2056,7.195,-27.927,3.72,0.8571,100746.88
0.2363,-0.2607,-0.3877,-8.415,-116.829,11.159,0.5236,100747.32
-0.144,0.272,0.4185,55.793,-88.232,39.39,0.5194,100747.3
0.5674,-0.2725,0.312,-13.171,-3.171,35.854,0.7025,100748.02
1.8511,-0.6455,-0.4829,-53.232,-5.122,9.695,2.019,100747.83
1.4468,-0.2563,-0.4302,-24.024,3.78,10.732,1.531,100748.05
1.2051,0.0542,-0.2261,-64.756,53.11,-5.854,1.2273,100748.09
1.7476,-0.1255,-0.2578,-142.744,67.622,-21.951,1.7709,100748.25
0.9434,0.2388,-0.4663,-81.402,-3.049,24.146,1.0791,100747.0
0.0474,0.0986,-0.3213,-7.744,-35.488,48.11,0.3394,100747.16
0.0469,-0.0371,-0.0586,38.171,-34.207,42.073,0.0837,100747.17
0.2959,0.0903,0.0684,45.732,-66.098,8.78,0.3168,100746.45
1.3848,-0.1602,-0.3145,97.866,-41.037,-29.695,1.429,100746.27
1.9102,0.5327,-0.1187,146.341,24.634,-47.5,1.9866,100746.51
1.248,0.0049,-0.2964,27.5,39.939,-43.598,1.2828,100746.46
1.5161,-0.7656,-0.9111,27.012,48.171,-52.683,1.9274,100747.65
1.2192,-0.2725,-0.1489,67.988,48.293,-58.293,1.2582,100748.27
0.9126,-0.2681,-0.1821,-35.671,37.439,-47.317,0.9684,100748.39
0.3428,-0.0571,-0.3218,-50.732,-56.707,2.134,0.4736,100748.1
0.0508,-0.1108,0.0996,5.122,-91.22,43.72,0.1574,100747.77
0.4307,-0.3135,0.0229,13.537,-59.756,65.732,0.5332,100747.39
1.3394,-0.4282,-0.123,-33.354,-34.756,49.329,1.4115,100746.61
1.6421,-0.5161,-0.4502,-104.146,24.939,15.488,1.7792,100746.38
1.2065,-0.1851,-0.3389,-75.244,61.829,13.232,1.2668,100746.86
1.4268,-0.0303,-0.3208,-72.744,65.793,22.866,1.4627,100746.2
1.209,0.0581,-0.5234,-121.89,72.195,0.366,1.3187,100746.6
0.7686,0.022,-0.6899,-78.841,75.854,-17.134,1.033,100746.64
0.1533,0.2061,-0.0962,15.122,-40.793,-11.768,0.2743,100746.66
0.1372,0.064,0.0732,49.695,-73.598,-7.561,0.1682,100746.8
0.7842,0.0044,-0.0229,67.317,-65.122,-8.354,0.7845,100746.44
2.207,0.022,-0.2246,116.098,16.402,-37.561,2.2185,100747.39
1.7417,0.4531,0.0547,48.293,63.415,-53.963,1.8005,100746.99
1.0303,-0.1431,-0.502,-25.305,47.5,-30.671,1.1549,100746.7
0.7852,-0.4321,-0.4468,35.976,38.171,-15.488,1.0014,100746.98
0.7388,-0.1157,0.0815,49.634,45.305,-5.183,0.7522,100747.67
0.8311,-0.2402,-0.5356,-28.78,-21.89,9.146,1.0175,100746.95
0.1504,0.0283,0.0039,7.866,-91.707,32.317,0.1531,100746.41
0.5034,-0.1553,0.1206,7.927,-67.927,37.744,0.5404,100746.14
1.2856,-0.4233,-0.1182,-40.061,-21.646,35.976,1.3587,100747.3
1.6914,-0.5342,-0.3584,-109.085,7.927,10.0,1.8096,100747.42
1.3257,-0.1602,-0.397,-79.817,18.78,20.122,1.3931,100747.38
1.3418,-0.0659,-0.2754,-50.549,47.134,29.939,1.3714,100747.73
1.2407,0.1689,-0.2637,-72.927,69.451,10.122,1.2796,100747.62
0.9922,0.1865,-0.6567,-49.268,57.439,25.061,1.2044,100746.91
0.3218,0.0981,-0.2227,2.866,-27.5,23.72,0.4034,100746.26
0.0498,0.0449,0.0137,28.293,-95.061,-6.829,0.0684,100747.0
0.4648,0.0552,-0.0688,53.232,-63.659,-20.61,0.4731,100746.81
1.7578,-0.1357,-0.2227,97.073,14.207,-32.195,1.777,100746.55
1.7451,0.4663,0.1782,135.0,31.646,-60.244,1.8151,100747.22
1.0356,0.0723,-0.2031,50.305,39.512,-44.634,1.0578,100747.11
1.2954,-0.5078,-0.5034,43.537,35.488,-33.171,1.4797,100747.16
0.9014,-0.397,-0.123,67.683,56.585,-18.232,0.9926,100747.84
0.9805,-0.1987,-0.2354,-20.061,62.317,-29.085,1.0277,100746.82
0.5073,0.0112,-0.2798,-59.634,-39.512,7.073,0.5795,100746.83
0.2026,-0.1787,-0.0171,-6.037,-109.39,56.951,0.2707,100746.43
0.8394,-0.3604,0.002,11.585,-60.305,49.268,0.9134,100746.03
1.8105,-0.3789,-0.1899,-49.573,-11.22,24.817,1.8595,100746.59
1.3408,-0.3628,-0.1865,-102.683,0.976,28.476,1.4015,100746.29
1.1152,-0.2329,-0.3179,-66.524,40.793,29.329,1.1828,100746.92
1.2144,-0.0356,-0.2148,-44.695,62.988,4.695,1.2337,100747.16
0.9517,0.4429,-0.1021,-64.146,78.354,-30.122,1.0546,100747.33
0.7808,0.1128,-0.645,-90.488,48.293,-23.354,1.019,100747.95
0.1099,0.106,-0.1128,7.561,-41.098,-12.012,0.1898,100747.8
0.3853,0.062,0.0732,84.329,-66.402,-5.61,0.397,100747.3
1.4712,-0.1455,-0.0522,121.28,-25.061,2.378,1.4793,100747.92
1.3188,-0.0142,-0.4189,13.659,33.476,-42.073,1.3839,100747.74
1.5161,-0.4336,-0.7773,34.817,12.195,-29.573,1.7581,100748.5
1.0254,-0.1992,-0.0156,79.268,22.683,-3.415,1.0447,100747.58
0.7148,-0.3276,-0.1167,-17.622,23.293,1.28,0.795,100747.39
0.5195,-0.2373,-0.356,-50.183,-63.11,1.768,0.673,100747.51
0.3325,0.0083,0.0801,-1.646,-93.537,41.646,0.3421,100747.22
0.6147,-0.1899,0.1704,-28.78,-58.11,54.695,0.6656,100746.98
1.6953,-0.5088,-0.1865,-58.049,-8.72,32.988,1.7798,100746.45
1.1841,-0.2915,-0.2217,-43.354,1.28,6.89,1.2394,100746.41
0.8555,-0.0542,-0.3828,-30.854,15.183,39.207,0.9388,100746.27
1.3857,-0.251,-0.5732,-93.415,26.341,40.061,1.5205,100746.28
1.356,0.0103,-0.3154,-113.049,51.646,-5.549,1.3922,100746.66
0.9429,0.3535,-0.1328,-58.659,42.134,10.488,1.0157,100746.83
0.481,-0.0166,-0.5229,-60.061,35.976,8.963,0.7107,100746.7
0.228,-0.0728,-0.3018,-30.122,1.159,-40.305,0.3852,100746.86
0.5312,0.1885,0.1313,51.829,-22.195,-30.793,0.5788,100747.34
1.5098,-0.0337,0.0879,108.537,-17.805,12.988,1.5127,100746.11
1.5562,0.2178,0.1362,79.146,-2.134,-1.524,1.5772,100746.41
1.3662,-0.001,-0.6992,13.841,84.939,-22.744,1.5347,100746.15
1.356,-0.2734,-0.4897,95.488,34.024,-7.134,1.4674,100746.95
1.3374,-0.2593,0.1279,120.183,20.793,-23.171,1.3683,100745.79
0.8838,-0.3726,-0.0986,14.634,15.305,-41.037,0.9642,100746.31
0.3208,-0.1348,-0.3389,-4.756,-43.232,-26.22,0.4857,100747.05
-0.0269,0.0845,0.1313,21.28,-52.622,8.537,0.1585,100747.5
1.8901,-0.4941,0.0317,-37.866,-39.878,29.024,1.9539,100747.95
1.3892,-0.4082,0.1665,-92.073,7.805,2.134,1.4574,100747.55
0.9268,-0.0884,-0.145,-86.524,53.659,13.11,0.9422,100746.77
1.5083,-0.0811,-0.4629,-79.329,69.024,51.402,1.5798,100746.55
1.6133,0.0601,-0.6943,-80.549,46.28,24.634,1.7574,100746.62
0.8838,0.252,-0.2744,2.927,-15.0,34.878,0.9591,100746.8
0.1782,0.0303,0.0166,34.085,-63.476,44.634,0.1815,100746.45
-0.0835,-0.1772,-0.0645,-1.463,-34.573,-8.841,0.2063,100746.8
0.4312,0.0547,-0.1499,18.476,-18.354,-58.476,0.4597,100748.18
1.9009,-0.186,-0.1987,108.293,-0.732,-42.378,1.9203,100747.87
2.0254,0.458,0.3716,84.024,22.622,-54.024,2.1095,100748.0
1.0312,0.1802,-0.166,-15.427,17.134,-26.402,1.06,100747.98
1.2749,-0.3667,-0.7065,22.378,5.976,-14.634,1.503,100747.21
0.9204,-0.3223,-0.1973,101.341,22.561,3.293,0.9949,100747.13
0.7432,-0.1567,0.1245,36.037,13.293,-7.988,0.7697,100747.7
0.4663,-0.2007,-0.1831,-50.61,-39.878,-0.061,0.5397,100747.86
0.2539,-0.0894,-0.0405,-14.817,-58.963,39.024,0.2722,100747.61
0.6558,-0.1685,0.1055,1.524,-56.646,52.744,0.6852,100747.91
1.7017,-0.4785,-0.2974,-56.89,6.22,31.037,1.7925,100748.17
1.771,-0.4844,-0.2935,-112.5,8.354,9.085,1.8593,100748.35
0.9268,-0.209,-0.2456,-91.28,21.89,26.098,0.9813,100748.1
0.939,-0.1582,-0.187,-65.671,80.061,33.598,0.9704,100747.55
1.292,-0.0264,-0.3755,-70.366,84.451,-2.5,1.3457,100746.76
1.0225,0.2466,-0.395,-4.817,41.341,12.805,1.1235,100747.43
0.4048,0.1865,-0.0288,11.098,-40.61,14.024,0.4466,100747.3
0.1191,-0.2163,0.0391,-8.049,-91.89,-6.951,0.25,100746.2
0.5054,-0.02,0.0146,48.049,-55.915,-16.28,0.506,100745.64
1.6479,-0.0312,-0.1187,102.256,-3.841,-24.085,1.6525,100746.08
1.6992,0.2324,0.0913,72.622,7.866,-34.695,1.7175,100746.66
1.1909,-0.5254,-0.9121,49.695,21.28,-9.939,1.5894,100746.72
1.0679,-0.207,-0.3965,120.915,20.976,-30.0,1.1578,100746.52
1.1284,-0.0879,0.0781,50.732,72.561,-49.817,1.1345,100746.98
0.916,-0.3413,-0.2627,-53.232,33.537,-66.098,1.0122,100747.58
0.6367,-0.1445,-0.23,-15.671,-31.402,-51.402,0.6922,100747.91
0.2451,-0.0005,0.0923,30.61,-63.598,3.11,0.2619,100748.65
0.4272,-0.2739,0.1387,-9.512,-62.317,17.866,0.5261,100748.23
1.9907,-0.7104,-0.0166,-78.11,9.573,23.963,2.1138,100748.02
1.6206,-0.4937,-0.0547,-120.915,3.11,-10.244,1.695,100747.62
1.0674,-0.1523,-0.2529,-110.0,28.171,18.78,1.1075,100747.32
1.2988,0.0747,-0.1484,-110.305,65.549,59.085,1.3094,100747.22
1.0635,-0.043,-0.5288,-126.646,34.878,19.756,1.1885,100746.77
0.6333,0.2354,-0.2461,-44.573,-21.829,1.646,0.719,100746.81
0.27,0.0986,-0.0752,-7.439,-55.244,18.537,0.2971,100746.97
0.3374,-0.1128,0.0039,0.305,-58.659,3.78,0.3558,100747.2
0.8916,-0.0127,-0.0049,4.634,-51.768,-5.549,0.8917,100747.0
2.0093,-0.2109,-0.1396,40.366,5.061,2.622,2.0251,100746.5
1.5908,0.2002,-0.2056,9.939,25.915,-30.549,1.6165,100746.61
0.9404,-0.1787,-0.5454,-10.061,27.317,-14.024,1.1017,100746.21
0.9751,-0.2207,-0.1479,16.524,41.037,9.024,1.0107,100746.27
0.8574,-0.3638,-0.1328,-44.207,35.549,-14.634,0.9408,100746.08
0.5981,-0.1592,-0.228,-68.049,-19.695,-32.439,0.6596,100746.16
0.4419,-0.0698,-0.2017,-49.878,-33.841,-0.793,0.4907,100746.62
0.4951,-0.0771,-0.0347,-41.28,-27.134,38.537,0.5023,100746.83
0.6133,-0.0723,0.0957,-46.037,-11.159,45.305,0.6249,100747.59
1.7627,-0.6484,-0.0376,-103.11,21.768,48.293,1.8786,100747.07
1.583,-1.043,-0.3511,-150.915,11.22,25.732,1.9279,100747.05
1.0815,0.0698,-0.249,-85.305,48.293,21.037,1.112,100746.29
1.4746,0.1846,-0.2363,-143.963,103.049,41.585,1.5048,100746.84
1.3628,-0.1719,-0.5918,-157.012,61.768,13.476,1.4957,100745.86
0.7261,0.0977,-0.1611,-33.598,-32.073,25.671,0.7501,100746.01
0.2832,0.0967,0.0024,-18.293,-46.037,21.098,0.2993,100745.27
0.2842,-0.1587,-0.1289,-44.268,-33.293,-3.415,0.3501,100746.05
0.6782,-0.021,-0.1543,-15.183,-29.39,-21.098,0.6959,100746.17
1.7632,-0.2437,-0.2666,36.402,5.0,-3.293,1.7998,100745.86
1.8286,0.1113,0.1279,22.317,2.012,-22.317,1.8365,100745.27
1.1313,-0.0625,-0.2837,-14.695,16.22,-24.512,1.168,100745.43
0.9526,-0.1899,-0.1899,23.293,14.512,-2.927,0.9898,100745.45
0.8018,-0.249,-0.0942,17.683,42.073,-3.902,0.8448,100745.98
0.6592,-0.1738,-0.2695,-14.512,25.976,-2.5,0.7331,100745.63
0.519,-0.0581,-0.2354,-42.378,-20.122,-6.22,0.5729,100746.46
0.5591,-0.0674,-0.1113,-28.598,-34.39,11.707,0.574,100746.23
0.6016,-0.1191,0.1558,-29.329,-44.085,28.72,0.6327,100745.8
1.3159,-0.4424,-0.0376,-64.024,-7.805,21.646,1.3888,100746.97
1.8794,-0.7588,-0.166,-88.049,27.439,52.5,2.0336,100746.96
1.4307,-0.3418,-0.314,-73.841,58.78,48.293,1.5041,100746.35
1.3242,0.0776,-0.0527,-79.939,71.159,32.439,1.3275,100746.38
1.1382,-0.105,-0.3945,-122.378,66.707,-11.524,1.2092,100746.66
0.6953,0.0366,-0.3818,-29.024,-6.28,-1.707,0.7941,100746.38
0.1602,0.1768,0.0195,19.695,-67.134,16.22,0.2393,100746.42
0.1738,-0.0479,0.0322,-7.5,-72.5,-8.537,0.1832,100745.95
0.6626,-0.0405,-0.1631,11.707,-106.829,-35.732,0.6836,100747.08
1.8511,-0.1157,-0.3545,70.732,-37.134,-28.476,1.8883,100747.06
1.7656,0.2183,0.0674,54.024,7.744,-44.451,1.7803,100747.04
1.0747,-0.1221,-0.4385,-18.537,12.378,-38.049,1.1671,100747.53
1.062,-0.2148,-0.2793,30.366,61.22,-11.098,1.1189,100748.12
0.9062,-0.2266,-0.1377,45.427,101.951,-2.134,0.9442,100747.97
0.8403,-0.248,-0.5469,-3.72,53.841,-9.695,1.0328,100747.23
0.5386,-0.0527,-0.3438,-7.378,-49.085,-0.122,0.6411,100747.91
0.2476,-0.0264,0.0396,-2.866,-84.146,42.561,0.2521,100748.19
0.8301,-0.2837,0.1108,-21.585,-60.793,43.171,0.8842,100748.38
2.1509,-0.6001,-0.0205,-62.866,10.427,33.171,2.2331,100749.02
1.5469,-0.5444,-0.1724,-129.695,11.159,-7.805,1.6489,100749.01
1.063,-0.0791,-0.1484,-58.659,45.61,29.207,1.0762,100748.62
1.2568,0.2432,-0.127,-65.0,90.061,39.634,1.2864,100749.46
0.9771,0.1865,-0.6421,-91.037,87.561,-9.512,1.1839,100749.34
0.3979,0.2944,-0.2236,11.463,4.085,-3.902,0.5432,100748.88
0.0625,0.0488,0.0625,61.89,-55.732,2.073,0.101,100747.91
0.1587,-0.0488,0.0005,76.28,-87.927,-6.463,0.166,100748.05
1.1733,-0.2256,-0.1499,95.915,-72.134,-18.598,1.2042,100749.15
2.0396,0.1128,0.1763,135.61,15.0,-37.317,2.0503,100748.62
1.1987,0.353,0.1216,46.341,36.28,-32.927,1.2555,100747.99
1.4253,-0.417,-0.7349,26.28,47.439,-11.22,1.6569,100747.99
1.3511,-0.2886,-0.124,42.317,63.659,-20.793,1.3871,100748.62
0.9185,-0.2285,0.0288,-25.122,75.549,-41.89,0.9469,100748.71
0.8726,-0.3789,-0.5571,-54.329,2.561,-23.232,1.1024,100748.15
0.2925,0.0542,-0.063,14.512,-92.073,20.244,0.3041,100748.37
0.2441,0.0024,0.1426,20.366,-105.427,42.256,0.2827,100747.52
1.1997,-0.5254,0.0508,-3.476,-53.232,65.305,1.3107,100748.16
2.0791,-0.584,-0.0518,-63.232,-14.207,19.39,2.1602,100748.12
1.0708,-0.0137,-0.0972,-80.305,-4.268,2.744,1.0753,100747.97
1.0068,-0.0615,-0.1284,-74.939,29.939,48.11,1.0169,100748.23
1.2285,0.0557,-0.1528,-98.415,71.585,21.585,1.2392,100748.05
1.0391,0.1567,-0.7637,-107.378,91.707,-5.305,1.299,100748.55
0.5347,0.1353,-0.3564,-35.427,15.549,-24.573,0.6567,100749.4
0.2524,0.0664,0.0425,37.5,-76.037,-28.78,0.2645,100749.94
0.5342,0.0029,0.1904,62.012,-84.085,-13.293,0.5671,100748.46
1.5151,-0.292,-0.3677,105.061,-59.024,14.268,1.5862,100748.62
1.6206,0.4863,0.0444,165.732,3.354,-15.488,1.6926,100749.48
1.252,0.2578,-0.1982,46.159,29.268,-51.402,1.2935,100749.36
1.3599,-0.2935,-0.3896,19.329,37.073,-46.159,1.4447,100748.16
0.7617,-0.4248,-0.103,42.988,68.72,-8.11,0.8782,100748.12
0.8462,-0.4482,-0.3169,-8.293,81.037,-21.159,1.0087,100747.11
0.6748,-0.0049,-0.21,-29.329,10.61,-23.841,0.7067,100746.97
0.2534,-0.0923,-0.0249,6.585,-113.232,38.11,0.2708,100746.87
0.8447,-0.1665,0.1948,15.549,-86.22,58.72,0.8827,100746.68
1.7402,-0.5151,0.0029,-59.512,-12.866,37.988,1.8149,100746.78
1.4292,-0.4287,-0.292,-88.598,-26.402,17.378,1.5204,100747.36
0.978,-0.146,-0.3066,-56.707,4.878,27.073,1.0353,100747.16
1.1011,0.0825,-0.1328,-63.659,56.341,6.951,1.1121,100747.51
0.981,0.2197,-0.2432,-82.195,80.854,-18.902,1.0343,100747.38
0.7422,0.1079,-0.5142,-60.976,27.927,-12.561,0.9093,100747.56
0.2441,-0.0493,-0.1943,-9.329,-78.232,-18.049,0.3159,100748.05
0.3833,0.2134,-0.0049,73.963,-99.146,0.671,0.4387,100747.34
1.6143,-0.3447,-0.293,111.585,-26.159,-2.378,1.6765,100747.02
1.9653,0.2925,-0.0684,178.049,6.768,-64.268,1.9882,100747.16
1.2354,0.2739,-0.3101,84.085,-5.732,-38.171,1.3028,100747.76
1.1274,-0.248,-0.3701,9.024,11.159,-26.037,1.2123,100748.08
0.7554,-0.4668,-0.1504,9.207,46.707,-17.439,0.9006,100748.08
0.7139,-0.2017,-0.0884,-53.232,67.805,-40.183,0.7471,100748.19
0.6211,-0.0708,-0.438,-87.866,30.549,-15.305,0.7633,100747.67
0.3237,-0.1592,-0.1265,0.976,-60.0,60.671,0.3823,100747.52
0.731,-0.1831,-0.0054,46.585,-74.024,73.598,0.7536,100747.78
1.6606,-0.3545,-0.1899,-22.317,-6.22,29.634,1.7086,100747.59
1.4717,-0.3799,-0.2739,-113.293,-3.537,-1.22,1.5444,100747.45
1.0825,-0.2964,-0.3418,-60.061,25.915,26.951,1.1733,100747.12
1.1963,-0.0762,-0.231,-0.183,45.854,25.183,1.2208,100747.97
0.856,0.3325,-0.0415,-13.537,63.232,-13.049,0.9192,100748.36
0.4917,0.4097,-0.1519,-37.683,56.037,-8.537,0.6578,100748.66
0.4604,0.0542,-0.1924,-64.817,-12.012,-0.488,0.502,100749.25
1.5796,-0.0205,-0.0337,160.488,-6.159,-37.622,1.5801,100747.59
1.1792,0.3672,0.1338,129.207,68.659,-75.488,1.2423,100747.21
1.8008,-0.1372,-0.4468,67.622,53.963,-49.329,1.8604,100747.42
1.3369,-0.3789,-0.4155,73.963,50.305,13.598,1.4504,100746.84
0.5469,-0.3262,-0.0435,-12.927,34.695,-27.256,0.6382,100747.02
0.4204,-0.2651,-0.043,-67.317,5.671,-54.512,0.4989,100746.9
0.4189,-0.21,-0.0713,-22.5,-65.244,4.817,0.474,100746.95
0.5298,-0.1777,0.0278,22.866,-123.171,57.378,0.5595,100747.11
1.5781,-0.3516,-0.0923,-24.268,-45.976,64.146,1.6194,100746.12
1.7505,-0.4126,-0.2432,-93.354,-2.439,41.037,1.8148,100746.73
1.0439,-0.0493,-0.2275,-76.463,12.134,14.268,1.0696,100746.7
0.9678,-0.0928,-0.1992,-63.72,23.659,29.695,0.9924,100747.05
0.855,0.0649,-0.0967,-66.768,30.793,6.829,0.8629,100747.3
0.665,0.2979,-0.1289,-60.427,68.537,-6.951,0.74,100747.64
0.5269,0.1074,-0.3306,-60.671,19.634,-5.305,0.6312,100747.88
0.6313,-0.0464,-0.1396,-22.134,-44.268,-11.22,0.6483,100747.8
1.0674,0.0879,-0.1479,44.024,-52.805,18.902,1.0812,100748.26
1.3457,-0.0791,0.0107,99.756,-12.256,3.232,1.3481,100747.99
1.2607,0.0039,0.0269,136.28,51.951,-24.695,1.261,100747.64
1.8877,0.1851,-0.3311,90.305,63.232,-27.805,1.9254,100746.99
1.5088,-0.0625,-0.4434,26.463,15.0,-40.732,1.5738,100746.66
0.4834,-0.3301,-0.0601,18.232,24.939,-24.756,0.5884,100747.51
0.4351,-0.4521,-0.0361,-6.037,52.012,-19.024,0.6285,100748.4
0.5649,-0.1719,-0.0859,22.073,-95.976,36.89,0.5967,100748.11
1.4521,-0.2554,-0.0396,24.817,-53.537,45.671,1.475,100747.99
1.6992,-0.3838,0.1245,-76.768,-10.061,43.659,1.7465,100748.02
1.0015,-0.4092,-0.0664,-98.415,-29.573,35.549,1.0839,100747.57
0.9009,-0.1709,-0.1978,-38.537,2.744,29.268,0.938,100747.7
0.9604,0.0361,-0.1475,-0.854,43.598,28.11,0.9724,100748.55
0.752,0.1929,-0.1343,6.707,66.341,27.378,0.7878,100748.94
0.752,0.1611,-0.25,-33.902,59.207,-27.683,0.8086,100749.11
0.8438,-0.0229,-0.1333,-70.061,-27.439,-68.902,0.8545,100748.98
0.9214,-0.0239,-0.2075,10.061,-65.183,-21.463,0.9448,100749.52
1.3149,-0.1367,-0.3423,58.598,-55.732,-6.707,1.3656,100749.78
1.1782,-0.1362,-0.0107,94.878,-15.915,-52.073,1.1861,100749.6
1.0864,0.1372,-0.1509,113.841,37.073,-52.683,1.1054,100748.48
1.4229,0.0449,-0.1992,65.305,38.72,-7.439,1.4374,100747.78
0.7812,-0.3218,-0.2568,19.024,8.11,22.012,0.8831,100748.11
0.5552,-0.4014,-0.1948,-12.134,49.268,0.244,0.7122,100748.61
0.7271,-0.2998,-0.0947,-52.927,34.817,-29.268,0.7921,100748.62
0.7266,-0.2456,-0.0571,-63.232,-20.793,-20.793,0.7691,100748.86
1.5215,-0.2007,-0.0708,-68.354,-32.744,18.659,1.5363,100749.43
1.5352,-0.312,0.1113,-118.598,-42.988,45.427,1.5705,100748.24
1.0303,-0.3896,-0.0708,-112.134,-0.061,12.256,1.1038,100747.1
0.9229,-0.1494,-0.0654,-15.793,16.463,16.585,0.9372,100747.23
0.9375,0.1255,-0.0171,57.988,12.805,40.549,0.946,100747.73
0.7412,0.3525,0.0088,45.793,34.207,32.195,0.8208,100747.82
0.561,0.2202,-0.2573,-26.159,55.427,2.561,0.6553,100747.55
0.6201,-0.04,-0.2026,-87.5,-27.744,-26.159,0.6536,100747.95
0.981,-0.1396,-0.2417,-8.598,-51.341,-12.744,1.0199,100747.63
1.5962,-0.1216,-0.4043,45.915,-13.11,-22.866,1.6511,100747.89
1.3535,0.0225,0.1626,64.695,10.427,-74.939,1.3634,100748.46
1.0186,0.1353,0.0874,115.122,33.476,-47.927,1.0312,100747.88
1.1943,0.0947,-0.0742,125.244,48.415,-3.049,1.2004,100747.71
1.1997,-0.104,-0.2847,74.756,36.037,-1.524,1.2374,100748.33
1.0591,-0.3569,-0.3145,-19.695,22.622,-14.939,1.161,100748.02
0.3931,-0.4917,-0.1411,-61.768,-50.732,-44.451,0.6451,100748.05
0.3398,-0.1899,0.1143,-42.5,-73.841,-24.39,0.4057,100748.08
1.1138,-0.2739,0.0396,-44.695,-70.244,49.634,1.1476,100747.6
1.4609,-0.375,0.0684,-92.256,-10.122,64.024,1.5098,100748.1
1.4014,-0.2437,-0.2168,-124.451,21.28,18.902,1.4388,100747.25
1.3862,-0.1089,-0.3965,-75.244,24.024,35.488,1.4459,100746.5
1.0376,0.0049,-0.1685,-0.915,12.195,51.707,1.0512,100746.29
0.5107,0.2808,-0.0029,17.866,16.463,22.073,0.5828,100746.64
0.354,0.3018,-0.0327,-6.159,31.22,-6.951,0.4663,100746.26
0.5869,0.0513,-0.1133,4.085,4.573,1.341,0.5999,100746.86
0.98,-0.0078,-0.2554,40.183,-54.451,2.988,1.0127,100747.06
1.6411,-0.1118,-0.3687,63.476,-40.0,-26.159,1.6857,100746.23
1.4346,-0.1372,0.1064,80.671,-8.537,-50.488,1.445,100746.7
0.8281,-0.0527,0.1768,97.317,43.476,-52.5,0.8484,100746.82
1.7222,0.104,-0.0991,95.183,70.122,-27.012,1.7282,100746.02
1.7007,0.0786,-0.2578,32.805,21.463,16.951,1.7219,100746.19
0.1758,-0.2188,-0.2524,-61.159,1.037,-4.024,0.3775,100746.3
0.1396,-0.5166,-0.3506,-88.598,11.524,-52.378,0.6398,100746.16
0.6338,-0.1255,-0.0522,0.793,-33.537,-22.683,0.6482,100746.41
0.8901,-0.0249,0.0317,47.439,-78.232,24.146,0.8911,100746.84
1.7764,-0.1978,0.1421,5.061,-21.89,41.098,1.793,100747.41
1.5347,-0.416,0.0625,-101.159,-21.768,19.268,1.5913,100746.38
1.0449,-0.2974,-0.2153,-92.622,23.537,3.72,1.1075,100746.2
0.9946,-0.1592,-0.2393,-43.11,32.073,16.28,1.0353,100745.95
0.8418,0.1909,0.0186,-29.695,42.561,7.012,0.8634,100745.63
0.5908,0.2769,-0.2183,-45.305,62.439,-5.915,0.688,100746.39
0.5347,0.1138,-0.3247,-39.024,38.354,-3.72,0.6358,100746.59
0.3584,0.1235,0.0049,5.244,-52.317,-8.537,0.3791,100747.1
1.1504,0.0825,-0.2109,68.78,-60.488,-0.305,1.1725,100746.12
1.8662,-0.083,-0.0771,127.195,-12.622,11.463,1.8696,100745.65
1.4883,0.3247,0.0918,128.963,-0.915,-19.207,1.5261,100745.17
1.396,0.0034,-0.3091,52.927,14.146,-19.268,1.4298,100746.02
1.103,-0.2197,-0.0562,10.122,12.744,-29.695,1.1261,100746.32
0.792,-0.2676,-0.0659,4.451,40.732,3.11,0.8386,100747.03
0.6055,-0.2563,-0.2559,-25.854,24.878,9.512,0.7055,100746.95
0.5156,-0.0264,-0.085,-26.341,-60.305,-15.366,0.5232,100746.13
0.4517,0.0049,0.0371,14.634,-138.476,40.915,0.4532,100747.03
0.9121,-0.2383,-0.207,17.378,-86.037,85.854,0.9652,100746.83
1.2446,-0.6421,-0.2827,-20.915,-103.72,82.744,1.4287,100746.8
1.0732,-0.6021,-0.3706,-13.11,-60.488,29.573,1.2852,100746.16
1.0474,-0.1431,-0.3936,-16.89,41.585,-10.427,1.128,100747.04
1.4331,-0.0464,-0.3794,-60.854,76.037,-1.524,1.4832,100747.07
1.0049,0.0376,-0.3052,-56.402,75.671,22.622,1.0509,100746.97
0.604,0.1611,-0.2251,-46.768,78.11,16.28,0.6644,100747.27
0.5469,0.1099,-0.2905,-76.098,73.537,-25.854,0.6289,100747.25
0.3423,-0.1436,-0.3252,-56.098,36.646,-33.659,0.4935,100747.11
1.0229,-0.0742,-0.0952,58.293,18.78,-8.659,1.03,100747.26
1.8242,-0.0312,0.0127,129.146,13.902,8.659,1.8245,100746.37
1.5869,-0.0488,0.0244,95.183,17.561,-45.427,1.5879,100746.21
1.5083,0.1284,-0.0557,95.793,45.549,-25.976,1.5148,100747.08
1.1357,-0.1074,-0.103,48.902,-1.768,4.085,1.1455,100746.62
0.6543,-0.4062,-0.0981,34.634,-2.012,21.89,0.7764,100746.77
0.4624,-0.5864,-0.1689,2.866,33.293,19.756,0.7657,100747.23
0.4307,-0.2583,-0.1011,-45.61,-8.049,-28.232,0.5123,100748.46
0.4263,0.1138,0.1519,-29.634,-68.659,-30.183,0.4666,100748.4
0.6909,-0.0396,0.2119,-7.561,-98.841,40.0,0.7238,100747.23
1.5776,-0.5391,0.0908,-57.317,-23.72,61.89,1.6697,100747.84
1.7446,-0.9883,-0.2212,-163.232,31.463,-24.329,2.0173,100746.94
1.0527,-0.187,-0.1978,-81.646,11.707,5.549,1.0873,100746.9
1.2993,0.0923,-0.0938,-31.646,34.268,49.085,1.306,100746.84
1.5459,-0.146,-0.4429,-100.244,63.049,-2.012,1.6147,100746.56
1.1226,0.0322,-0.6079,-49.268,63.293,2.317,1.277,100747.21
0.4717,0.3784,-0.1104,31.524,-28.78,21.89,0.6147,100747.21
-0.1338,0.1406,-0.0259,20.244,-95.061,-16.707,0.1958,100747.33
0.1177,-0.0142,-0.0322,36.098,-60.915,-54.146,0.1228,100747.05
0.9805,-0.0063,0.0693,115.244,-56.646,-20.854,0.9829,100747.84
1.6743,-0.2222,-0.1978,65.427,42.012,-17.012,1.7005,100746.77
1.4951,-0.1973,-0.6533,29.634,61.463,-72.5,1.6435,100746.26
1.4297,-0.1562,-0.374,62.927,33.476,-48.598,1.486,100746.51
0.9243,-0.3618,-0.104,14.268,32.683,-35.366,0.998,100746.55
0.6426,-0.4644,-0.312,-19.268,-34.268,-32.439,0.852,100747.22
0.4648,-0.0386,-0.1367,26.829,-94.207,10.915,0.4861,100746.84
0.2798,0.1367,0.1533,26.159,-119.939,37.073,0.3471,100746.95
1.1333,-0.2861,-0.0767,-43.902,-78.659,33.598,1.1714,100746.66
1.9717,-0.6133,-0.374,-113.232,-6.585,22.561,2.0985,100746.68
0.8564,-0.3862,-0.3193,-101.28,-6.89,12.866,0.9923,100746.45
0.5723,0.1064,-0.2153,-41.28,17.866,28.415,0.6206,100745.78
1.1099,0.1348,-0.3359,-69.146,48.354,28.049,1.1674,100746.01
0.9673,-0.0464,-0.645,-84.268,57.622,22.439,1.1635,100746.2
0.5503,0.0474,-0.4629,-2.622,23.171,13.659,0.7206,100746.7
0.375,0.1416,-0.084,41.951,-43.72,-9.329,0.4095,100746.59
0.5942,0.2578,-0.0933,36.524,-77.012,-27.988,0.6544,100746.99
1.5439,-0.0332,-0.5254,37.256,-36.951,-18.476,1.6312,100745.56
1.8936,-0.1934,-0.5166,58.72,14.512,-52.195,1.9723,100745.98
1.1523,0.1904,-0.1802,86.524,-8.171,-48.659,1.1818,100746.16
0.9253,0.0195,-0.1934,55.732,12.256,-26.524,0.9455,100746.07
0.8013,-0.1479,-0.0527,38.72,35.549,-4.512,0.8165,100746.59
0.4707,-0.4048,-0.1602,-2.073,44.756,15.183,0.6411,100748.0
0.4707,-0.4048,-0.1602,-2.073,44.756,15.183,0.6411,100747.94
0.4644,-0.4004,-0.562,-23.476,62.744,7.866,0.8317,100748.4
1.1582,0.0098,-0.3027,-41.22,-26.402,30.0,1.1972,100747.75
1.7188,-0.3105,-0.3086,-107.012,-2.744,36.22,1.7736,100747.25
1.4331,-0.4585,-0.2808,-156.646,10.244,-6.098,1.5306,100747.12
1.2139,-0.1528,-0.4165,-94.329,-2.744,-4.146,1.2924,100747.04
0.8711,0.0859,-0.2192,-3.659,2.683,19.207,0.9024,100746.73
0.6069,0.3652,-0.0342,32.927,41.22,11.22,0.7092,100746.84
0.499,0.228,-0.1831,44.268,14.939,20.854,0.5784,100747.32
0.4902,0.0215,-0.1372,61.28,-29.939,26.768,0.5095,100747.8
0.6274,0.0156,-0.2637,38.293,-44.207,-9.268,0.6808,100747.65
1.5581,-0.0259,-0.6069,17.012,-25.244,-41.768,1.6723,100746.8
1.5244,0.0493,-0.1333,17.5,12.256,-85.671,1.531,100747.3
0.918,0.0718,-0.2134,38.415,-2.012,-68.11,0.9452,100747.4
1.4194,0.0391,-0.519,64.817,15.549,-24.451,1.5119,100747.36
1.1587,-0.1938,-0.1982,70.854,27.561,47.134,1.1914,100746.84
0.3755,-0.4824,-0.0249,36.037,30.183,60.0,0.6118,100747.32
0.5264,-0.4639,-0.3389,-17.256,58.11,-7.439,0.7791,100747.69
0.7559,-0.0757,-0.2808,-7.866,-41.28,-19.39,0.8099,100747.45
1.0386,0.0098,-0.1729,16.098,-83.11,13.841,1.0529,100746.78
1.4604,-0.0474,0.126,-64.024,-5.366,37.073,1.4666,100746.02
1.2583,-0.4712,-0.3843,-157.683,9.451,27.805,1.3975,100746.21
1.1138,-0.3784,-0.5532,-63.598,2.317,37.012,1.2999,100746.09
0.9155,-0.1221,-0.2222,3.11,11.463,23.659,0.95,100746.25
0.7207,0.1182,-0.0957,-3.659,49.695,3.537,0.7366,100746.26
0.6133,0.25,-0.1416,-11.341,58.293,1.28,0.6772,100747.75
0.4644,-0.0254,-0.3267,-29.39,36.585,-16.037,0.5683,100747.02
0.7202,0.1079,-0.0493,2.195,-21.768,-38.902,0.7299,100746.96
1.3149,0.1553,-0.1855,30.061,1.037,-26.524,1.337,100747.28
1.814,-0.0669,-0.1978,73.049,36.341,-42.378,1.8259,100747.15
1.5859,0.1377,-0.333,144.695,36.159,-27.134,1.6264,100746.44
0.9448,-0.1113,-0.248,119.085,-8.293,-5.793,0.9832,100747.14
0.8916,-0.3706,-0.0776,44.085,1.524,1.646,0.9687,100747.31
0.8389,-0.3569,-0.2144,-28.476,7.012,-20.793,0.9365,100747.55
0.4058,-0.064,-0.1011,-32.927,-54.573,-16.768,0.423,100747.48
0.2803,-0.0923,0.1406,-1.463,-86.646,35.244,0.3269,100746.69
0.9404,-0.1914,-0.061,-32.805,-62.805,50.305,0.9616,100747.08
1.7163,-0.1753,-0.2134,-156.22,-1.22,5.976,1.7384,100746.99
1.4849,-0.4683,-0.6958,-178.415,15.244,2.073,1.7054,100747.16
1.1465,-0.2959,-0.5435,-16.951,3.902,61.037,1.3028,100747.68
0.8921,0.0762,-0.2134,45.305,-4.756,32.561,0.9204,100748.05
0.7178,0.2168,-0.0591,11.524,37.988,8.11,0.7521,100748.74
0.5918,0.1699,-0.1714,-17.988,30.488,12.988,0.6391,100748.37
0.458,-0.0234,-0.2266,-41.341,-2.988,-18.476,0.5115,100747.6
1.042,0.0879,-0.3364,-7.866,-64.756,-25.549,1.0985,100747.51
1.3159,0.0054,-0.4385,63.902,-29.024,-17.561,1.3871,100747.82
1.1602,0.2192,-0.0444,105.366,13.963,-77.256,1.1815,100747.91
1.438,0.3428,-0.1309,74.756,65.122,-78.537,1.4841,100747.89
1.4321,-0.0029,-0.439,61.402,23.902,-4.512,1.4979,100747.97
0.5713,-0.5117,-0.335,70.732,-2.805,45.61,0.8369,100747.55
0.6567,-0.3979,-0.1113,27.927,7.744,-4.451,0.7759,100746.87
0.4263,-0.1709,-0.1313,-48.537,-12.5,-10.183,0.4777,100746.48
0.4951,-0.4038,-0.2822,-56.341,-56.89,9.146,0.6985,100746.69
1.3423,-0.1138,-0.2578,-22.622,-66.037,9.878,1.3715,100747.33
1.582,-0.0957,-0.1294,-100.793,-26.768,8.902,1.5902,100746.45
1.1855,-0.4507,-0.4731,-109.695,-6.585,31.768,1.3537,100746.91
1.123,-0.1484,-0.3892,-0.366,15.244,67.378,1.1978,100746.24
0.9946,0.1196,-0.2124,12.805,24.817,42.073,1.0241,100746.12
0.5962,0.3267,-0.1138,-30.488,45.244,6.524,0.6893,100745.91
0.5967,0.2354,-0.1802,-29.878,32.256,-1.22,0.6662,100746.02
0.4502,0.064,-0.2051,-19.024,-15.488,1.829,0.4988,100746.94
0.5576,0.0044,-0.2788,-7.134,-44.024,-15.0,0.6235,100746.78
1.5493,-0.0889,-0.6323,54.268,1.159,-24.817,1.6757,100747.52
1.5918,0.0752,-0.0024,84.329,53.354,-48.537,1.5936,100747.81
0.9395,0.063,-0.1797,66.28,64.024,-36.707,0.9586,100748.03
1.3818,0.0801,-0.3423,78.659,53.232,-4.512,1.4258,100747.21
1.0747,-0.3599,-0.3711,60.61,29.939,31.646,1.1926,100746.97
0.4893,-0.4961,-0.2505,37.5,22.012,3.415,0.7404,100746.03
0.5479,-0.144,-0.0513,-3.963,9.512,-10.915,0.5688,100746.59
0.481,-0.2959,-0.0059,-21.463,-69.085,29.085,0.5647,100746.26
1.0308,-0.3003,-0.0933,-32.683,-60.427,37.134,1.0777,100746.74
1.7466,-0.2178,-0.1807,-75.549,-3.72,8.171,1.7694,100746.39
1.5469,-0.3232,-0.4771,-95.122,-13.354,-3.415,1.6507,100746.62
0.9761,-0.0903,-0.415,-28.78,14.146,36.646,1.0645,100746.55
0.6958,0.0908,-0.2466,-24.573,49.146,29.451,0.7438,100746.61
0.6245,0.1206,-0.1992,-40.976,55.549,4.268,0.6665,100746.91
0.7227,0.2183,-0.2012,-16.707,24.512,-15.549,0.7812,100747.49
0.626,0.2485,-0.0005,-4.634,-48.293,-36.22,0.6735,100747.95
0.7734,0.0991,-0.0479,38.11,-64.512,-2.927,0.7812,100749.02
1.1929,-0.3042,-0.2915,81.646,-13.293,-16.159,1.2651,100748.73
1.2676,0.063,-0.1465,108.232,22.622,-101.768,1.2776,100748.61
1.875,0.0996,-0.522,99.573,84.024,-78.902,1.9488,100747.4
1.5405,0.1465,-0.1567,104.695,39.512,-12.622,1.5554,100747.87
0.7139,-0.3862,-0.2769,55.732,12.317,5.732,0.8576,100747.73
0.5322,-0.3018,-0.23,1.463,-1.341,-11.037,0.6536,100748.25
0.1367,-0.1938,-0.043,-29.268,-61.524,-21.646,0.2411,100747.62
1.0308,-0.2969,-0.1436,-3.354,-77.805,37.195,1.0822,100747.3
1.7173,-0.1426,0.062,-22.622,-2.622,54.817,1.7243,100746.68
1.397,-0.3398,-0.1875,-68.72,10.305,5.122,1.4499,100747.08
0.8545,-0.0537,-0.189,-19.024,-21.524,36.646,0.8768,100747.0
0.8979,0.0391,-0.2495,-36.22,2.744,35.0,0.9328,100747.34
0.8022,0.1689,-0.2812,-54.878,59.451,22.5,0.8667,100747.19
0.5386,0.0918,-0.3232,-52.378,32.378,14.573,0.6348,100746.84
0.4434,-0.1133,-0.1841,-23.78,-1.89,-19.146,0.4932,100747.56
0.9097,0.1226,-0.042,27.195,-50.793,-17.622,0.9188,100747.38
1.7578,-0.1992,-0.209,54.329,-16.037,-14.512,1.7814,100747.73
1.1401,0.0537,0.0469,53.72,41.829,-71.646,1.1424,100747.38
1.3389,0.3608,-0.4326,32.012,45.976,-53.963,1.4526,100747.97
1.5278,0.1626,-0.6841,50.976,-17.561,20.61,1.6819,100748.18
0.4316,-0.4087,-0.1152,59.878,-25.122,81.585,0.6055,100748.22
0.4058,-0.6436,0.0776,6.585,4.39,19.634,0.7647,100747.62
0.6865,-0.2163,-0.0913,-35.122,-40.061,-39.817,0.7256,100747.42
0.6729,-0.2886,-0.1455,-28.537,-85.793,22.622,0.7464,100747.77
1.3989,-0.1729,-0.27,-53.11,-37.5,62.134,1.4352,100747.52
1.5024,-0.2471,-0.2769,-169.573,4.817,27.744,1.5476,100746.98
0.9751,-0.2607,-0.5571,-150.854,1.829,1.28,1.1529,100747.41
0.7739,-0.1367,-0.3354,-26.159,32.012,8.232,0.8545,100747.02
0.8691,0.2935,-0.0415,21.829,64.207,-24.207,0.9183,100746.47
0.9023,0.3545,-0.0063,9.939,54.756,-1.341,0.9695,100746.69
0.6162,0.1743,-0.1333,31.098,-7.195,46.037,0.6541,100747.09
0.6963,-0.0317,-0.2544,25.427,-40.366,27.866,0.742,100746.91
1.2993,-0.2593,-0.5615,15.305,-66.037,-12.195,1.439,100747.5
1.4136,-0.1064,-0.1606,64.451,-5.488,-60.976,1.4266,100747.46
0.7271,0.166,0.0137,63.232,33.963,-76.707,0.7459,100747.78
1.0068,0.1694,-0.4854,69.939,26.341,-25.0,1.1305,100747.54
1.4126,-0.0889,-0.6069,78.902,17.012,5.915,1.54,100748.71
0.7085,-0.291,-0.1777,69.085,23.78,28.049,0.7863,100748.11
0.7705,-0.4688,-0.2202,-11.402,62.561,-2.378,0.9284,100747.66
0.6572,-0.355,-0.2744,-29.024,-6.037,-21.037,0.7958,100747.08
0.9419,-0.1943,0.0239,-7.744,-71.524,-2.439,0.962,100748.02
1.2798,-0.2437,0.1685,-71.28,-25.061,24.939,1.3136,100747.97
1.1274,-0.3018,-0.1167,-149.634,-17.561,35.0,1.1729,100747.43
1.001,-0.2188,-0.5103,-85.061,0.122,48.598,1.1446,100747.78
0.7524,0.043,-0.3008,-2.561,22.927,44.573,0.8115,100748.66
0.937,0.188,-0.1064,5.366,76.341,9.634,0.9616,100748.44
1.3193,0.0044,-0.5679,-46.89,74.817,-24.939,1.4364,100748.54
0.48,-0.0059,-0.2515,-116.22,-28.902,-59.512,0.5419,100748.1
0.6992,0.0088,-0.1104,-23.598,-64.085,-18.963,0.7079,100747.79
1.0044,0.1655,-0.2314,59.024,-13.659,13.78,1.0439,100747.66
1.2998,-0.0894,-0.0835,76.463,23.598,-19.512,1.3055,100747.57
1.7573,0.0703,-0.188,118.659,84.451,-31.829,1.7687,100747.37
1.7236,0.2036,-0.3403,122.927,50.488,23.476,1.7687,100747.23
0.8389,-0.1226,-0.1377,42.683,-15.244,34.573,0.8589,100747.23
0.3276,-0.4214,-0.0283,-13.415,-9.085,28.598,0.5345,100747.75
0.2656,-0.27,-0.0723,-46.646,17.866,3.963,0.3856,100748.38
0.6982,-0.1943,-0.1528,-45.915,-20.183,9.146,0.7407,100747.98
0.8862,-0.29,-0.187,15.366,-55.915,29.939,0.9511,100748.08
1.5215,-0.0713,0.2417,23.72,-23.293,15.061,1.5422,100747.75
1.0615,-0.4019,-0.0654,-59.39,-0.122,5.183,1.1369,100748.27
0.9004,-0.3569,-0.4082,-52.622,24.939,-11.524,1.0511,100749.25
1.3281,-0.1255,-0.3647,-18.598,29.512,-10.732,1.383,100749.39
1.1924,-0.0732,-0.437,37.927,70.854,33.232,1.2721,100749.73
0.6006,0.1011,-0.1895,15.183,69.39,-0.366,0.6378,100749.73
0.4536,0.0645,0.041,-60.061,-50.244,-69.451,0.46,100749.13
0.4551,0.0122,0.126,-9.878,-79.268,-34.573,0.4724,100749.16
1.1719,-0.1353,-0.3423,42.744,-53.537,-12.317,1.2283,100749.32
1.3872,-0.1792,-0.145,98.293,-13.598,-58.72,1.4062,100749.05
1.3491,0.4541,-0.2383,125.0,49.451,-89.146,1.4433,100748.38
2.1704,0.3623,-0.4194,56.707,58.476,-35.427,2.2401,100747.88
1.1821,-0.3516,-0.3159,48.963,-19.268,46.22,1.2731,100748.59
0.2065,-0.4844,0.0293,13.841,35.244,54.756,0.5274,100749.41
0.1982,-0.4346,-0.1724,-64.695,2.012,7.622,0.5078,100749.27
0.4653,-0.0239,-0.0107,-59.024,-52.134,-16.341,0.4661,100749.02
0.9697,-0.3213,-0.248,-30.549,-86.829,50.061,1.0512,100748.84
1.6704,-0.3711,-0.1133,-24.268,-6.707,77.073,1.7149,100748.58
1.2666,-0.4595,-0.1587,-81.402,39.512,32.805,1.3567,100748.77
0.8843,-0.293,-0.23,-40.671,26.768,19.573,0.9595,100748.16
0.9297,-0.0425,-0.0913,-15.915,22.866,15.122,0.9351,100747.97
0.8979,0.0425,-0.0991,-17.927,45.061,15.793,0.9044,100747.67
0.7744,0.0874,-0.0952,1.524,24.695,20.549,0.7851,100747.85
0.8721,0.1538,-0.1025,-25.549,-18.293,-1.22,0.8914,100748.34
0.8003,-0.0024,-0.3052,-53.659,-90.122,11.037,0.8565,100747.97
1.1255,-0.4019,-0.5288,15.732,-60.61,-8.232,1.3068,100748.05
1.3232,-0.0298,-0.0029,114.146,31.829,-60.671,1.3236,100747.26
1.2241,-0.0044,0.0005,88.354,73.232,-66.463,1.2241,100748.28
1.2397,-0.0273,-0.1743,53.293,81.22,-61.829,1.2522,100748.53
1.4165,-0.0972,-0.189,29.085,108.354,5.671,1.4324,100748.73
0.437,-0.3979,-0.2275,-32.195,43.171,47.256,0.6333,100748.27
0.1577,-0.3042,0.0815,-77.317,-39.756,-11.402,0.3522,100748.05
0.6099,-0.3135,0.0059,-59.817,-69.634,-12.805,0.6857,100747.65
1.1406,-0.2236,-0.1001,-20.183,-61.951,12.317,1.1666,100747.82
1.3408,-0.2524,0.0093,-66.037,-6.159,7.256,1.3644,100747.7
1.2578,-0.3135,-0.1904,-97.012,25.244,-11.585,1.3102,100747.85
1.3633,-0.1016,-0.3604,-44.756,44.756,16.28,1.4138,100747.38
1.0913,-0.1289,-0.0864,2.744,34.695,34.39,1.1023,100747.87
0.7695,0.0591,0.1514,39.024,63.537,25.488,0.7865,100748.35
0.9214,0.1621,-0.0742,21.402,60.854,-19.39,0.9385,100747.98
0.6284,-0.0806,-0.3516,-62.012,-3.902,-70.915,0.7246,100748.21
0.8838,0.1528,-0.0073,3.537,-43.476,-36.28,0.8969,100746.77
1.2651,0.1226,0.1587,47.317,32.073,25.0,1.2809,100746.78
1.0952,-0.1851,0.2681,72.134,22.561,20.976,1.1426,100746.55
1.3311,-0.1128,0.0913,125.366,9.634,-7.256,1.3389,100745.89
1.7246,0.0576,-0.1289,96.22,26.159,-2.927,1.7304,100746.01
1.0869,-0.2144,-0.167,0.793,-11.463,14.634,1.1204,100746.34
0.4072,-0.4282,-0.0273,-33.841,-9.207,5.244,0.5916,100746.7
0.4331,-0.3218,0.0664,-31.768,-43.476,-17.073,0.5436,100746.6
0.5103,-0.1846,0.0889,-45.427,-67.073,10.915,0.5498,100746.3
0.9839,-0.3179,-0.0991,-39.39,-68.841,38.171,1.0387,100746.44
1.5225,-0.2261,-0.0068,-61.402,-26.402,19.695,1.5392,100745.91
1.3569,-0.3413,-0.1172,-106.829,-1.646,1.829,1.4041,100746.28
1.2217,-0.1592,-0.3267,-33.293,32.988,30.549,1.2746,100746.3
0.9399,-0.083,-0.0859,18.659,15.793,38.11,0.9475,100746.68
0.6787,-0.0273,0.1577,9.878,28.598,-9.634,0.6973,100745.98
0.7554,0.0229,0.0322,5.549,47.683,-33.902,0.7564,100745.32
0.623,-0.043,-0.168,4.756,-35.732,12.012,0.6467,100745.46
0.7656,-0.0405,-0.1196,28.902,-51.098,40.061,0.776,100745.32
1.4014,-0.2607,-0.4087,7.5,-19.085,10.183,1.4829,100745.21
1.5264,-0.1714,-0.0044,8.476,4.878,-80.915,1.536,100746.1
1.2256,0.1494,0.0044,38.841,5.549,-74.207,1.2347,100746.79
1.0425,-0.0176,-0.2363,52.439,-14.756,-4.756,1.0691,100746.91
0.6729,-0.1138,-0.0908,51.159,1.037,19.329,0.6884,100747.63
0.4941,-0.4087,-0.0815,36.28,19.756,30.61,0.6464,100747.57
0.6182,-0.5835,-0.1997,17.317,1.341,16.402,0.8732,100747.16
0.6802,-0.335,-0.021,-8.537,-60.0,-16.89,0.7585,100747.2
1.6182,-0.3223,-0.0708,-39.878,-45.244,-23.598,1.6515,100746.73
1.5659,-0.2314,0.0005,-121.22,-20.366,3.049,1.5829,100746.27
1.1895,-0.1768,-0.3193,-140.061,10.305,9.878,1.2442,100746.05
1.3076,-0.3042,-0.5381,-77.805,12.256,17.012,1.4464,100746.86
0.7891,-0.0376,-0.0864,11.585,3.598,51.585,0.7947,100747.48
0.3789,0.1396,-0.0278,32.866,21.524,35.549,0.4048,100747.44
0.3452,0.188,-0.0815,14.634,-11.585,-17.195,0.4015,100747.16
0.5742,0.0991,-0.1001,18.11,-48.963,-29.756,0.5912,100746.6
1.2378,-0.0078,-0.4658,35.305,-65.366,-26.951,1.3226,100746.66
1.877,-0.2241,-0.3672,57.683,-5.549,-52.683,1.9256,100747.33
1.1685,0.1836,0.0806,76.463,55.061,-90.976,1.1855,100747.09
1.1943,-0.001,-0.2422,58.293,45.244,-47.622,1.2186,100747.53
1.4087,-0.0039,-0.2412,65.427,1.037,-6.707,1.4292,100747.36
0.689,-0.2412,-0.1616,31.098,17.744,48.415,0.7476,100747.97
-0.0806,-0.52,-0.189,-31.646,27.378,29.329,0.5591,100748.45
0.5776,-0.4712,-0.1416,-67.134,-74.39,-6.22,0.7588,100747.8
0.7212,-0.2354,-0.1143,-34.939,-137.805,51.402,0.7672,100747.69
1.3906,-0.0508,-0.3218,-87.866,-68.171,42.5,1.4283,100747.73
1.5361,-0.1689,-0.4399,-147.561,-0.488,0.732,1.6068,100748.12
1.1846,-0.0166,-0.5298,-53.902,17.744,7.927,1.2977,100748.08
1.1509,-0.3389,-0.1792,12.439,43.902,32.866,1.213,100747.14
1.1528,-0.1689,-0.019,60.366,59.329,46.89,1.1653,100747.45
0.8555,-0.02,-0.459,14.817,62.317,-4.268,0.971,100746.7
0.3169,0.1714,-0.3267,-12.317,1.585,-31.098,0.4863,100747.11
0.5898,0.2114,-0.2124,22.012,-48.415,-10.244,0.6616,100747.42
0.9316,0.2231,-0.3467,29.939,6.159,10.061,1.0188,100747.65
1.2744,-0.1675,-0.2925,23.476,25.854,-18.72,1.3182,100747.46
1.2441,-0.2178,-0.0562,107.073,48.963,-39.878,1.2643,100747.68
1.4414,-0.1016,-0.0728,121.585,58.293,-17.073,1.4468,100746.98
1.0493,-0.2002,-0.186,48.293,-22.195,-10.244,1.0843,100746.33
0.5327,-0.2578,-0.0967,6.951,-16.585,-2.561,0.5997,100746.72
0.4683,-0.3477,-0.2983,-18.476,-27.744,6.951,0.6551,100746.88
0.666,-0.2568,-0.312,-27.744,-79.573,13.049,0.779,100746.51
1.2271,-0.1099,-0.2134,-37.012,-122.927,12.927,1.2503,100746.97
1.6113,-0.1592,-0.2178,-130.305,-54.512,29.451,1.6338,100746.2
1.2559,-0.4512,-0.4058,-183.354,41.098,35.0,1.3948,100746.24
1.0366,-0.1318,-0.5596,-72.561,50.793,12.683,1.1854,100746.65
0.9619,0.2109,-0.4482,46.646,15.366,9.207,1.082,100746.09
0.7036,0.2036,-0.2451,80.976,73.963,22.378,0.7724,100745.52
0.5156,0.0225,-0.3267,56.037,64.207,13.232,0.6108,100745.87
0.4487,0.0898,-0.0244,-5.732,-52.073,-29.146,0.4583,100745.88
0.4521,0.0415,-0.0166,10.976,-60.122,3.659,0.4544,100746.02
1.0542,-0.0405,-0.5479,53.049,-18.78,19.817,1.1887,100745.62
1.6045,-0.2222,-0.4365,89.634,17.073,-42.927,1.6776,100745.81
1.2778,0.0981,-0.2124,101.402,56.829,-99.268,1.2991,100746.21
1.3296,0.0347,-0.1196,80.854,59.451,-60.366,1.3354,100746.01
1.2192,-0.186,-0.2075,23.72,9.939,-6.89,1.2507,100746.23
0.1216,-0.3813,-0.1216,-64.268,17.683,28.841,0.4183,100745.9
0.6279,-0.5229,-0.2095,-59.329,-47.561,10.244,0.8436,100745.9
1.3091,-0.2051,-0.29,-28.354,-105.305,9.695,1.3564,100746.02
1.3081,-0.1592,-0.1821,-104.817,-7.927,46.22,1.3303,100745.62
1.291,-0.3457,-0.2021,-126.768,66.463,40.793,1.3517,100745.32
1.0635,-0.1465,-0.2832,-55.671,61.402,1.89,1.1102,100744.72
1.3315,0.0483,-0.3418,25.854,49.329,20.0,1.3756,100745.03
0.5894,0.0874,-0.1479,61.22,31.707,60.366,0.6139,100745.62
0.2974,0.0806,-0.0864,32.988,-10.0,23.415,0.32,100745.94
0.7729,-0.041,-0.1294,-37.5,-78.171,-29.207,0.7848,100746.05
0.9829,-0.1758,-0.291,-6.585,-81.159,-14.451,1.04,100746.51
1.4717,-0.3481,-0.5039,45.427,-40.854,-39.451,1.594,100746.34
1.1748,0.0317,0.0757,81.768,14.756,-76.768,1.1777,100746.74
1.02,0.0835,-0.1577,69.39,80.061,-73.354,1.0355,100746.51
1.438,0.02,-0.3389,16.585,30.793,-66.098,1.4775,100746.23
1.2363,-0.3169,-0.5825,-38.72,65.122,-0.305,1.4029,100746.25
0.1572,-0.5122,-0.2837,-52.439,-32.5,21.463,0.6063,100745.91
0.1465,-0.2163,0.1997,-34.451,-74.695,25.976,0.3288,100745.66
0.7646,-0.27,-0.0088,-40.976,-49.268,22.683,0.811,100746.83
1.2988,-0.1611,-0.1479,-93.72,-37.683,16.28,1.3171,100746.1
1.5107,-0.3657,-0.4351,-131.463,12.988,45.915,1.6141,100746.04
1.4126,-0.4199,-0.6313,-65.915,50.061,31.402,1.6032,100746.13
1.3857,-0.1479,-0.3013,-27.012,31.463,-5.732,1.4258,100746.43
0.8833,-0.0503,-0.0474,-17.561,25.305,10.732,0.886,100745.78
0.8599,-0.2012,-0.4131,-61.89,-17.012,30.122,0.9749,100747.45
1.2979,-0.335,-0.6758,-39.817,-0.549,-16.768,1.5011,100747.17
1.2354,-0.2539,-0.1724,13.598,5.427,-52.256,1.2729,100746.47
1.0459,-0.0249,-0.0557,46.037,43.476,-28.232,1.0477,100746.44
1.563,0.0059,-0.3003,5.427,18.476,-6.524,1.5916,100746.54
1.0073,-0.0635,-0.1729,-36.89,8.476,16.585,1.024,100746.87
0.3984,-0.0732,-0.1846,-58.354,4.146,31.402,0.4452,100746.61
0.2427,-0.2466,-0.146,-97.622,-3.415,-8.598,0.3755,100746.53
0.4897,-0.2456,-0.2988,-69.573,-64.39,-6.646,0.6241,100746.61
1.3774,-0.2441,-0.2393,-25.305,-28.841,31.646,1.4192,100746.54
1.542,-0.4761,-0.2852,-110.183,-5.244,46.768,1.6388,100747.11
1.0215,-0.5195,-0.438,-145.976,17.012,23.841,1.2269,100746.65
1.3081,-0.3457,-0.4043,-76.402,36.402,15.122,1.4121,100746.32
0.9932,-0.1514,-0.2192,9.268,-8.354,65.122,1.0283,100745.83
0.6284,0.0205,-0.1562,23.415,0.671,47.866,0.6479,100745.82
0.5112,0.3232,-0.1157,-51.829,43.537,-31.951,0.6158,100746.45
0.5796,0.0879,-0.1382,-95.366,-12.195,-25.915,0.6023,100747.05
1.3003,-0.2188,-0.5679,-40.854,-30.488,-13.049,1.4356,100747.88
1.3569,-0.2427,-0.3628,14.39,15.793,-21.159,1.4254,100747.86
1.0928,-0.0879,-0.1426,50.671,8.78,-10.122,1.1055,100746.74
1.2783,-0.1084,-0.4038,31.707,37.317,-16.707,1.345,100747.38
1.1929,0.0049,-0.1934,18.171,43.598,-30.305,1.2085,100746.88
0.6343,-0.1392,-0.0654,-7.439,31.829,13.841,0.6527,100747.23
0.6299,-0.3213,-0.1709,-47.683,-19.451,17.744,0.7275,100747.2
0.9331,-0.313,-0.3047,-55.0,-58.232,16.768,1.0303,100747.38
1.5547,-0.103,-0.3203,-45.488,-36.28,26.463,1.5907,100747.6
1.2817,-0.3164,-0.1836,-130.305,-16.768,46.585,1.3329,100746.67
1.104,-0.3052,-0.3599,-133.902,25.854,51.159,1.2006,100746.34
1.0322,-0.1025,-0.377,-60.549,36.707,10.366,1.1037,100746.72
1.0278,0.1963,-0.1011,12.866,43.232,8.659,1.0513,100746.12
0.5952,0.1387,-0.166,57.805,-1.768,41.402,0.6333,100745.81
0.4653,0.0806,-0.0591,23.72,-13.171,-8.11,0.4759,100746.2
0.8286,-0.1128,-0.374,-23.293,-24.634,-33.049,0.9161,100745.49
1.3447,-0.1392,-0.5361,5.183,-58.293,-26.159,1.4543,100745.96
1.2686,-0.1562,-0.291,0.122,-12.256,-52.683,1.3109,100746.3
0.9478,-0.0029,-0.1157,38.354,29.878,-65.549,0.9548,100746.82
1.2935,-0.042,-0.3447,55.061,48.902,-37.561,1.3393,100746.56
1.2451,-0.0039,-0.2607,50.732,40.488,-0.549,1.2721,100746.26
0.7051,-0.1709,-0.1006,-15.854,8.476,19.756,0.7324,100746.52
0.3364,-0.2651,-0.0161,-75.0,-23.11,17.073,0.4286,100746.86
0.7886,-0.2363,-0.1792,-79.939,-62.622,17.378,0.8425,100746.98
1.0566,-0.2329,-0.2461,-20.244,-86.22,45.0,1.1096,100746.81
1.3843,-0.0156,-0.0747,-14.268,-38.78,39.512,1.3864,100746.95
1.0898,-0.2451,-0.1841,-129.146,2.012,-3.598,1.1321,100746.95
1.0029,-0.2573,-0.3535,-101.28,57.683,-1.585,1.0941,100747.05
1.4707,0.0547,-0.4536,-25.732,54.634,38.841,1.54,100746.98
0.7949,0.2134,-0.4238,16.159,22.927,92.683,0.9258,100746.58
0.3169,0.0615,-0.2358,27.927,63.659,69.207,0.3998,100746.9
0.4634,0.1646,-0.1299,-47.5,47.256,-34.939,0.5086,100747.14
0.7188,0.0933,-0.0215,-44.817,28.232,-42.988,0.7251,100747.18
1.5713,-0.1245,-0.3418,6.22,34.695,-28.232,1.6128,100746.97
1.4233,0.0239,0.0874,59.451,18.171,-50.0,1.4262,100747.17
1.2012,0.0513,-0.0684,85.183,49.024,-36.159,1.2042,100746.7
1.4487,0.0728,-0.1543,132.195,39.695,48.11,1.4587,100745.85
0.9189,-0.2222,-0.229,88.841,-10.366,70.671,0.9728,100746.57
0.4541,-0.272,-0.1562,-12.195,-32.317,13.963,0.5519,100747.38
0.5322,-0.3647,-0.0669,-38.841,-72.073,0.976,0.6487,100747.5
0.9634,-0.3569,-0.0562,-34.512,-92.805,-8.293,1.0289,100748.82
1.4927,0.0762,0.0449,-63.78,-42.683,-13.659,1.4953,100748.7
1.1968,-0.2046,-0.1162,-150.976,-26.28,24.634,1.2197,100748.47
1.0156,-0.3462,-0.4058,-129.756,29.695,20.854,1.1472,100747.56
1.0073,-0.2734,-0.2896,0.244,39.573,22.744,1.0832,100747.38
0.9224,0.0024,-0.0615,46.098,-2.195,11.402,0.9244,100747.39
0.6777,0.127,0.001,79.329,39.39,35.061,0.6895,100746.76
0.7588,0.1831,-0.0493,50.854,0.427,14.085,0.7821,100747.4
0.9473,0.0996,-0.1597,-39.573,-44.817,-8.354,0.9658,100747.62
1.2031,-0.0527,-0.3877,-48.72,-11.951,-10.854,1.2651,100747.66
1.1528,-0.1519,-0.2832,-20.915,9.695,-49.878,1.1968,100747.07
0.7354,-0.0513,-0.1655,34.146,37.744,-58.354,0.7555,100747.26
1.0488,-0.0669,-0.1436,73.171,70.915,-8.841,1.0607,100747.77
1.1279,-0.2622,-0.1777,43.415,29.878,19.024,1.1716,100748.25
0.9761,-0.3115,-0.2144,13.537,15.366,40.427,1.0468,100748.24
0.7715,-0.3037,-0.1128,-19.39,-26.646,20.61,0.8368,100747.9
0.9609,-0.2964,-0.0649,-42.683,-85.732,7.5,1.0077,100747.73
1.2373,-0.292,-0.1108,-27.988,-59.268,17.805,1.2761,100748.12
1.1094,-0.2793,0.0518,-110.305,-6.646,12.988,1.1452,100748.41
1.1899,-0.2217,-0.2964,-122.5,30.854,7.256,1.2462,100747.86
1.168,-0.1128,-0.4233,-55.549,44.329,4.146,1.2474,100747.85
0.9639,0.1006,-0.2197,-2.5,72.256,8.537,0.9937,100747.84
0.6187,0.144,-0.1113,35.244,53.902,31.585,0.6449,100748.55
0.5103,0.1147,0.0059,17.805,-20.671,6.768,0.523,100748.48
0.8608,0.1519,0.0889,-6.707,-41.22,-17.073,0.8786,100748.04
1.2373,-0.0928,-0.4087,-0.549,-51.585,-18.293,1.3064,100747.72
1.5581,-0.2495,-0.0288,66.22,-7.317,-23.72,1.5782,100746.98
0.9712,-0.1489,0.0908,84.695,66.28,-52.073,0.9867,100747.28
1.0527,0.002,-0.3525,77.073,30.122,-50.427,1.1102,100747.52
1.2896,0.0459,-0.2407,61.646,-3.476,4.878,1.3126,100747.21
0.7114,-0.2783,-0.2007,20.671,4.756,49.085,0.7898,100746.71
0.2549,-0.502,-0.0439,-39.451,-54.817,-10.793,0.5647,100746.96
0.5591,-0.3389,0.0288,-26.28,-132.561,-14.085,0.6544,100746.91
1.5522,-0.1318,-0.0801,-17.683,-73.049,3.354,1.5599,100746.38
1.6118,-0.3701,-0.3286,-127.256,-59.024,46.707,1.6861,100746.34
1.0498,-0.4355,-0.4209,-98.72,-45.427,68.354,1.212,100746.58
0.9556,-0.0933,-0.4487,-28.902,10.427,30.305,1.0598,100747.24
0.8379,0.2524,-0.3022,-13.232,33.049,1.037,0.9258,100746.89
0.4146,0.2144,-0.2246,8.537,38.11,23.354,0.5179,100747.73
0.2671,-0.1499,-0.3296,-14.634,31.037,-1.341,0.4499,100747.97
0.5879,0.0137,-0.1035,-9.146,-52.256,-39.268,0.5971,100748.05
1.5566,0.0596,-0.5117,44.817,-38.72,-25.0,1.6397,100748.35
1.6343,0.0029,-0.4966,47.988,13.537,-52.805,1.7081,100748.08
0.9126,0.0874,-0.1548,64.085,89.329,-72.317,0.9297,100747.62
1.0049,0.0635,-0.1221,57.134,100.0,-57.073,1.0143,100747.77
1.2354,-0.022,-0.4048,44.939,38.476,-11.829,1.3002,100747.77
0.7974,-0.4165,-0.562,22.927,72.805,42.988,1.0607,100748.51
0.6909,-0.4756,-0.1094,19.634,22.195,20.061,0.8459,100748.44
0.2402,0.0513,0.2676,-12.744,-85.0,4.207,0.3632,100749.02
0.9956,-0.1675,-0.146,-52.256,-86.341,6.037,1.0201,100749.33
1.3481,-0.1011,-0.2563,-90.488,-29.695,2.439,1.376,100749.56
1.46,-0.2568,-0.2363,-115.305,-5.549,-10.061,1.5011,100749.0
1.3467,-0.1514,-0.3408,-30.671,16.707,15.305,1.3974,100748.58
1.248,-0.2109,-0.3394,-2.195,27.927,46.098,1.3104,100748.61
0.7666,-0.0957,0.0156,0.732,50.366,51.585,0.7727,100748.76
0.5366,0.1074,-0.0903,-5.061,76.585,18.963,0.5547,100749.38
0.5186,0.2378,-0.2266,-49.939,51.159,-24.207,0.6138,100749.1
0.7856,0.1772,-0.0132,-55.732,-1.098,1.098,0.8055,100749.01
1.4351,0.0645,-0.4326,-7.927,-22.317,-22.439,1.5002,100748.7
1.6641,0.0415,-0.1685,18.11,25.244,-77.439,1.6731,100748.34
1.1538,0.0752,-0.0498,119.268,50.915,-14.512,1.1573,100748.94
0.9272,0.0449,-0.1255,140.244,43.232,29.573,0.9368,100748.52
1.0884,-0.0967,-0.1108,56.768,15.0,11.098,1.0983,100747.82
0.7432,-0.3594,-0.0767,-27.378,-8.659,24.207,0.829,100747.69
0.4116,-0.3867,-0.0244,-73.841,-33.72,13.293,0.5653,100748.08
0.5625,-0.2275,-0.0161,-78.72,-68.354,-0.61,0.607,100747.99
1.0425,-0.1587,-0.0596,-59.573,-64.939,32.378,1.0562,100747.8
1.3398,-0.0186,0.0952,-82.256,-38.232,44.39,1.3434,100747.17
1.2422,-0.2261,-0.0044,-138.963,1.585,53.841,1.2626,100747.18
1.2427,-0.3892,-0.3784,-84.024,67.988,26.768,1.3561,100746.84
1.4038,-0.1724,-0.2607,-8.476,44.207,27.622,1.4382,100746.45
0.9609,-0.0435,-0.1787,43.841,47.5,47.988,0.9784,100746.62
0.5879,0.1514,-0.2695,31.646,52.866,-26.22,0.6642,100746.91
0.3604,0.2646,-0.019,-19.451,-0.427,-39.756,0.4475,100746.88
0.8633,0.0376,-0.062,-5.732,-45.488,-4.39,0.8663,100747.35
1.5249,-0.2397,-0.4067,30.061,-19.817,-7.378,1.5963,100747.71
1.2485,-0.2446,0.1157,57.988,0.793,-45.732,1.2775,100747.84
0.7715,0.0137,-0.0156,100.061,45.793,-66.159,0.7718,100748.07
1.5566,0.3789,-0.1108,102.256,71.768,-54.39,1.6059,100748.48
1.1655,0.1016,-0.1431,63.537,-12.012,14.024,1.1787,100748.53
0.4883,-0.2847,-0.1016,28.415,-43.537,35.671,0.5743,100748.59
0.4507,-0.313,-0.1011,-9.329,-36.829,-6.89,0.5579,100748.26
0.7925,-0.2524,0.0234,-12.073,-86.22,-12.073,0.832,100748.15
1.4175,-0.2056,0.0229,-43.963,-49.695,5.915,1.4325,100748.41
1.5029,-0.3291,-0.0566,-138.963,-27.439,17.561,1.5396,100748.5
0.9727,-0.3179,-0.3975,-147.378,-21.28,7.317,1.0978,100748.3
0.9624,-0.103,-0.4492,-42.073,-13.11,35.366,1.0671,100747.66
0.9727,-0.0322,-0.3086,37.012,-2.805,48.902,1.0209,100747.44
0.7129,0.2573,0.0225,59.451,27.195,31.646,0.7582,100747.13
0.8066,0.1733,-0.0371,36.159,29.268,24.573,0.8259,100747.52
0.8364,-0.0234,-0.1729,12.012,-37.378,5.793,0.8544,100748.31
1.084,-0.2104,-0.2432,0.854,-29.024,-1.89,1.1307,100747.91
1.2031,-0.1997,-0.4443,0.061,-35.244,-48.171,1.298,100748.38
1.1475,0.0469,-0.103,32.866,3.72,-88.841,1.153,100748.84
1.3579,0.1475,-0.376,119.695,41.341,-8.841,1.4167,100750.3
1.4326,0.1006,-0.25,115.976,48.049,44.695,1.4577,100749.8
0.8174,-0.1494,-0.0366,34.695,48.415,28.171,0.8317,100749.28
0.561,-0.2354,0.0708,-42.988,28.659,4.207,0.6125,100748.9
0.3188,-0.4585,-0.2642,-90.488,-30.122,-13.232,0.6178,100748.85
0.3794,-0.3652,-0.144,-43.171,-78.598,-17.195,0.546,100748.46
0.3794,-0.3652,-0.144,-43.171,-78.598,-17.195,0.546,100747.55
1.064,-0.1475,-0.2271,-15.549,-51.646,19.878,1.0979,100748.73
1.4385,-0.1611,-0.0376,-78.476,-6.89,34.573,1.448,100748.72
1.0347,-0.3853,-0.2622,-103.963,17.317,3.537,1.1348,100748.62
1.2065,-0.1973,-0.3096,-56.707,22.988,0.0,1.2611,100748.27
1.0894,-0.1123,-0.3428,-24.939,26.402,20.671,1.1475,100747.91
0.7402,0.146,-0.188,31.585,55.671,23.171,0.7776,100747.73
0.6309,0.2446,-0.2979,-7.866,25.732,-12.988,0.7393,100748.38
0.729,0.1221,-0.1338,-42.561,-51.341,-15.122,0.7512,100747.72
1.1553,-0.2012,-0.4482,2.927,-43.049,-6.402,1.2554,100748.48
1.1577,0.1094,-0.145,106.951,-35.427,-55.915,1.1719,100747.93
1.1182,0.2485,0.0693,122.134,-12.439,-58.171,1.1475,100748.15
1.5542,-0.0537,-0.3516,69.817,5.671,-6.951,1.5944,100747.93
1.5391,-0.252,-0.6875,24.146,12.622,-3.537,1.7044,100748.51
0.7051,-0.2939,-0.4585,34.146,16.159,23.598,0.8909,100748.69
0.6929,-0.1943,-0.1123,26.463,38.049,40.122,0.7283,100748.58
0.1509,-0.229,0.0249,-34.024,10.305,24.817,0.2754,100747.99
0.7524,-0.2578,-0.1963,-67.622,-77.439,-11.829,0.8192,100748.16
1.2085,-0.0747,-0.0703,-56.037,-29.817,20.427,1.2128,100747.7
1.3394,-0.2598,0.0225,-149.146,33.537,-11.585,1.3645,100747.73
1.1714,-0.2217,-0.4585,-153.963,48.11,-60.61,1.2773,100748.62
1.0088,-0.0317,-0.3784,-36.037,48.963,-23.476,1.0779,100748.9
1.0107,0.0005,-0.2295,46.89,30.305,22.683,1.0365,100749.12
0.5806,0.2017,-0.0581,112.439,35.915,35.915,0.6173,100749.38
0.5312,0.1948,-0.1973,87.012,-7.866,8.415,0.5992,100748.96
0.8447,0.1138,-0.0566,3.11,-30.122,-22.866,0.8542,100747.78
1.3579,-0.1748,-0.2505,-0.488,21.829,32.195,1.3918,100748.65
1.5811,-0.3574,-0.168,35.244,-11.159,-19.451,1.6296,100749.04
1.1626,0.0474,-0.0889,38.659,28.232,-99.817,1.167,100749.21
1.2998,0.1992,-0.2544,66.037,47.561,-29.512,1.3394,100749.96
1.0625,-0.0327,-0.3472,67.805,-3.354,25.671,1.1183,100749.16
0.4756,-0.1167,-0.0796,19.878,6.098,1.951,0.4961,100749.93
0.3579,-0.1997,0.1206,-54.207,10.122,-11.159,0.4272,100749.5
0.6025,-0.3911,-0.1606,-97.439,-27.439,-3.72,0.7361,100748.82
1.1504,-0.248,-0.2134,-63.78,-39.085,2.927,1.196,100748.55
1.6479,-0.1108,-0.0278,-82.744,-10.244,19.817,1.6519,100748.35
1.3242,-0.313,-0.2461,-126.037,-16.402,11.707,1.3828,100748.45
1.1323,-0.0591,-0.2534,-55.061,21.585,13.354,1.1618,100748.02
0.7778,0.1943,-0.021,24.451,9.695,40.305,0.802,100748.84
0.6523,0.2983,0.022,26.951,22.561,30.305,0.7177,100748.32
0.7046,0.1206,-0.2109,31.22,59.756,26.159,0.7453,100747.82
0.7188,0.0215,-0.0586,47.866,1.463,22.988,0.7215,100747.82
1.0576,-0.1455,-0.229,41.768,-33.171,20.061,1.0919,100748.43
1.5781,-0.1851,-0.5298,44.207,-21.22,-18.11,1.6749,100748.88
1.3057,0.0918,0.1152,33.841,24.634,-67.195,1.3139,100749.23
0.9688,0.1646,0.1694,22.805,54.085,-52.439,0.9971,100748.99
1.061,0.0571,0.0439,44.146,2.378,7.073,1.0635,100748.83
0.9204,-0.0454,-0.1113,52.561,-45.122,27.378,0.9282,100749.29
0.6885,-0.1006,-0.2422,35.976,-21.463,44.573,0.7367,100748.79
0.3887,-0.5498,-0.3062,25.854,0.061,50.976,0.7396,100749.28
0.6924,-0.4463,0.0586,36.463,-61.463,16.585,0.8258,100749.28
1.1797,-0.2134,-0.0215,6.463,-16.28,-19.817,1.199,100749.77
1.1372,-0.0547,-0.0308,-79.695,19.085,-13.171,1.1389,100750.51
1.4282,-0.1138,-0.1367,-183.537,15.244,5.671,1.4393,100750.45
1.3521,-0.3276,-0.5039,-149.024,75.0,38.902,1.4796,100750.02
1.4175,-0.3247,-0.1929,-8.476,60.854,43.415,1.4669,100749.95
1.2212,-0.0137,-0.5801,21.098,62.439,-26.585,1.352,100750.27
0.124,0.1592,0.0811,8.293,21.768,-63.476,0.2175,100749.41
0.3633,0.2217,0.1831,27.5,-63.963,-21.463,0.4633,100748.73
0.8892,0.1255,0.0752,0.061,-12.256,-1.585,0.9011,100749.38
1.2305,-0.1069,-0.0215,-7.012,46.646,-8.232,1.2353,100749.36
1.3086,-0.0845,0.1655,77.073,13.354,-37.927,1.3217,100750.07
1.4463,0.146,0.0366,137.622,73.293,-19.024,1.4541,100749.75
1.4414,0.064,-0.0864,104.878,17.195,28.963,1.4454,100748.12
0.7925,-0.3101,-0.1646,4.756,-19.207,39.085,0.8667,100748.05
0.481,-0.3179,0.0181,-51.159,7.561,12.073,0.5768,100748.34
0.4585,-0.2441,0.0591,-71.829,-41.829,-2.805,0.5228,100748.33
0.7549,-0.2163,-0.0356,-50.793,-69.451,6.037,0.7861,100747.83
1.4429,-0.0518,0.0166,-53.537,-22.866,8.72,1.4439,100747.46
1.3135,-0.292,0.0425,-121.768,-37.317,26.646,1.3462,100747.41
1.2021,-0.3926,-0.2134,-103.841,-54.451,28.11,1.2825,100747.01
1.1343,-0.2026,-0.3472,-13.232,0.366,14.573,1.2034,100747.22
1.1538,0.002,-0.0249,29.512,58.78,-0.976,1.1541,100747.62
1.1025,0.0522,-0.1655,42.622,94.695,28.476,1.1161,100747.54
0.4844,0.1426,-0.1411,-11.646,-31.585,-7.805,0.5243,100746.98
0.5332,0.062,0.0195,-50.854,-58.902,-29.024,0.5372,100746.33
1.0942,-0.0142,-0.1177,1.951,-30.854,3.11,1.1006,100746.71
1.2432,-0.1333,-0.1631,22.5,-27.256,-17.256,1.2609,100746.48
1.1338,0.0156,0.229,88.415,8.415,-60.793,1.1568,100746.58
1.209,0.1753,-0.1064,130.488,121.22,-35.427,1.2263,100746.65
1.5444,0.0186,-0.2925,84.451,50.976,7.866,1.572,100747.56
0.7705,-0.252,-0.0317,23.598,-20.915,51.585,0.8113,100747.62
0.4189,-0.3721,-0.0557,-47.134,22.927,12.5,0.5631,100748.05
0.48,-0.2944,-0.0034,-58.476,-22.317,-46.28,0.5631,100747.25
0.8374,-0.2173,0.0518,-22.683,-48.72,-43.293,0.8667,100746.78
1.2578,-0.1191,0.1206,3.354,-43.476,10.549,1.2692,100747.55
1.1587,-0.3032,0.2822,-51.463,-34.39,40.976,1.2305,100747.26
1.3438,-0.3682,-0.2505,-87.256,17.317,10.305,1.4156,100747.41
1.5542,-0.1836,-0.292,-32.012,57.256,10.305,1.592,100748.16
0.9961,-0.0522,-0.2236,12.256,59.024,17.439,1.0222,100748.7
0.7305,0.3823,0.0298,29.085,28.72,-1.037,0.825,100748.24
0.5918,0.1299,-0.0122,-16.402,-78.72,6.524,0.606,100747.14
1.0142,-0.1963,-0.1348,-2.744,-63.902,-10.0,1.0417,100748.32
1.4438,-0.1895,-0.4175,71.89,5.061,-9.207,1.5149,100747.7
1.168,-0.1167,0.2954,107.866,-24.085,-34.329,1.2104,100748.12
1.021,0.0132,0.145,124.878,19.268,-22.927,1.0313,100747.68
1.542,0.1157,-0.1187,80.488,19.451,-4.634,1.5509,100747.35
1.1621,-0.1133,-0.1782,-1.402,-1.28,36.098,1.1811,100747.36
0.4023,-0.1226,-0.0908,-41.951,32.073,17.927,0.4303,100747.01
0.4766,-0.1597,-0.0083,-85.61,-22.744,-18.963,0.5027,100747.96
0.6377,-0.3057,0.0806,-76.646,-51.89,8.963,0.7117,100747.08
1.1353,-0.187,0.021,-44.695,0.305,4.329,1.1507,100746.78
1.4146,-0.02,0.0991,-79.085,-7.866,-27.5,1.4182,100746.42
1.1636,-0.1782,0.1113,-139.634,27.012,-45.732,1.1824,100747.04
1.2944,-0.23,-0.2324,-88.598,52.927,-7.195,1.3351,100747.24
1.0508,-0.1436,-0.2432,6.28,14.573,44.817,1.0881,100747.9
1.0361,0.0361,-0.356,53.72,7.195,41.098,1.0962,100747.89
0.8936,0.2393,-0.2729,55.671,63.232,25.854,0.9645,100748.25
0.457,0.0693,0.0073,10.488,-12.073,-1.463,0.4623,100748.77
0.8408,0.0156,0.1011,31.22,-64.512,-11.402,0.847,100748.53
1.3354,0.1436,0.1265,46.585,22.195,-8.415,1.3491,100748.73
1.5283,-0.1348,0.2007,11.768,45.366,-48.902,1.5473,100749.88
1.3481,-0.0732,0.3999,112.134,46.646,-16.585,1.4081,100749.88
0.9429,0.0708,0.0732,153.537,42.622,27.561,0.9484,100749.76
0.7666,-0.2769,-0.1548,29.024,-38.476,23.232,0.8296,100748.53
0.6294,-0.2544,-0.0542,-7.561,5.366,-0.122,0.681,100748.37
0.606,-0.21,0.0845,-55.976,-12.5,-12.866,0.6468,100747.99
0.9102,-0.3057,0.1411,-71.524,-24.695,20.671,0.9704,100747.34
1.3442,-0.2949,0.0132,-60.366,-13.049,10.854,1.3763,100746.74
1.502,-0.0747,0.1138,-119.085,-45.0,-29.573,1.5081,100747.04
1.4414,-0.1738,-0.1309,-182.256,-34.146,-8.902,1.4577,100746.99
1.1421,-0.2549,-0.2847,-121.463,0.732,0.183,1.2043,100748.06
0.8481,-0.0908,-0.1235,-34.451,-3.049,-8.049,0.8619,100748.02
0.6943,0.1123,0.0112,33.841,-6.159,14.878,0.7034,100748.48
0.499,0.2402,0.0312,79.329,8.537,32.378,0.5547,100748.84
0.7285,0.1045,-0.019,57.683,-20.976,16.28,0.7362,100748.45
0.9976,0.001,-0.2046,30.183,-52.195,-8.354,1.0183,100748.32
1.71,-0.0752,-0.4766,21.951,-37.988,-31.768,1.7767,100747.72
1.6025,-0.0493,-0.0664,56.89,-7.5,-56.89,1.6047,100746.87
0.7559,0.0781,0.1675,81.585,19.451,-19.207,0.7781,100747.13
0.5288,-0.0215,0.0254,34.573,13.415,-14.146,0.5299,100747.7
0.7515,-0.0728,-0.1055,6.22,4.573,-10.0,0.7623,100748.1
0.752,-0.0884,-0.2324,26.463,33.72,26.585,0.792,100748.43
0.603,-0.2065,-0.272,-6.707,33.659,38.293,0.693,100748.52
0.8379,-0.3433,-0.0728,-46.22,-0.976,19.146,0.9084,100747.75
1.4604,-0.2534,-0.084,-59.024,-45.854,-12.5,1.4847,100747.4
1.6187,-0.1035,0.0552,-129.085,2.378,-57.073,1.6229,100746.89
1.4272,-0.1509,-0.1411,-156.524,-6.768,-49.207,1.4421,100746.62
1.2026,-0.0312,-0.3618,-87.5,-22.866,3.232,1.2563,100747.3
0.8687,0.0176,-0.3735,2.622,-27.134,46.341,0.9457,100747.57
0.5884,0.0728,0.0088,69.451,-1.402,50.61,0.5929,100747.27
0.5435,0.1626,0.168,109.207,29.634,36.768,0.5916,100748.54
0.5254,0.1387,-0.0771,82.622,23.476,2.561,0.5488,100748.48
