ax,ay,az,gx,gy,gz,avm,pressure
0.5786,0.2905,0.1094,51.402,-95.61,-55.549,0.6566,100741.95
1.2178,0.5835,-0.0869,42.683,-6.037,-79.817,1.3531,100741.48
1.5581,0.5347,-0.29,50.488,38.598,-77.866,1.6726,100741.51
1.2368,0.4868,-0.2524,46.829,74.634,-40.61,1.3529,100741.3
0.9971,0.0078,-0.0791,69.268,26.463,-26.707,1.0002,100741.62
0.6865,-0.0469,-0.6753,36.463,-51.159,-35.427,0.9641,100741.88
0.7305,0.1323,-0.6128,62.073,-33.171,22.5,0.9626,100741.95
0.7998,-0.1411,0.0601,84.634,-82.317,59.512,0.8144,100741.74
0.5957,-0.1187,0.6079,51.463,-88.11,45.793,0.8594,100740.74
1.4502,0.4087,0.0767,-51.098,3.415,-0.854,1.5086,100740.49
1.2539,0.2461,-0.1289,-42.012,57.683,51.341,1.2843,100740.3
1.2803,0.3794,-0.9502,-92.195,118.963,71.768,1.6389,100740.41
1.4536,0.7949,-1.3203,-134.451,92.073,39.207,2.1185,100741.24
0.6265,0.6846,-0.4053,-26.463,-53.415,0.793,1.0126,100740.5
0.0796,0.2593,0.2451,89.268,-110.915,25.244,0.3656,100740.3
-0.0503,-0.0312,0.3389,134.756,-89.268,5.0,0.344,100740.66
0.29,0.3306,0.3101,137.012,-68.841,-54.695,0.5381,100740.8
0.9482,0.3774,-0.3726,68.659,31.829,-84.878,1.0865,100741.41
2.1182,0.3887,-1.3745,-35.549,199.695,-17.195,2.5548,100741.12
1.9834,-0.0942,-1.0024,58.049,134.146,-38.415,2.2243,100741.16
0.7759,-0.1138,-0.2661,58.049,-30.61,-39.024,0.8281,100741.57
0.3999,-0.1074,0.1401,-21.463,-75.61,9.695,0.4371,100741.73
0.3628,-0.2817,0.2881,-31.829,-87.866,47.622,0.5422,100741.62
0.9956,-0.1895,-0.0464,-3.232,-93.476,56.098,1.0145,100742.3
1.3198,0.5142,-0.8984,-162.256,86.098,81.951,1.6773,100742.65
0.771,0.9312,-0.5498,-139.878,45.0,58.963,1.3281,100741.94
-0.0342,0.2178,-0.0708,-3.232,-91.28,-0.305,0.2315,100741.43
0.3516,0.2217,0.2212,65.915,-54.573,-45.488,0.4708,100741.94
0.9019,0.3091,0.041,101.402,-5.183,-64.756,0.9542,100741.69
1.5474,0.5884,-0.7354,113.537,92.195,-65.244,1.8114,100742.23
2.0337,0.104,-0.9321,103.049,203.476,-43.415,2.2395,100743.02
1.6597,-0.0459,-0.8379,86.89,-11.341,-57.927,1.8597,100743.46
0.5352,-0.3101,-0.0024,137.378,-116.159,-53.537,0.6185,100743.96
0.1167,-0.4233,0.4561,72.195,-141.951,-73.72,0.6331,100744.55
0.3584,-0.1699,0.3555,-5.671,-126.646,12.5,0.5326,100744.53
1.0977,-0.23,-0.103,-47.195,-35.122,80.183,1.1262,100743.52
1.1553,-0.3149,-0.5068,-81.463,-16.402,70.244,1.3003,100743.76
1.9634,0.1289,-1.437,-178.11,44.817,16.585,2.4365,100742.23
2.3325,0.9502,-1.3716,-175.549,40.061,158.963,2.8679,100742.15
-0.1772,0.6416,-0.3472,-118.72,-168.841,172.439,0.7507,100741.5
-0.7471,0.6865,0.2319,-28.11,-154.756,6.829,1.0408,100741.38
0.394,0.374,0.397,95.854,5.671,-70.305,0.6729,100741.91
0.6826,0.0366,-0.0747,115.793,28.11,-69.451,0.6877,100742.8
0.8096,0.2397,-0.6777,59.817,7.195,-107.012,1.0827,100743.59
1.5703,0.6577,-1.5039,71.22,175.732,-116.098,2.2716,100743.06
2.7822,0.4092,-1.2886,83.11,176.646,-105.61,3.0933,100743.3
0.6807,-0.3779,-0.1152,160.915,-122.683,-107.012,0.787,100744.12
0.3086,-0.5479,0.4224,-18.78,-30.061,18.293,0.7575,100744.02
0.9038,-0.2344,-0.2139,-72.5,32.866,66.524,0.9579,100744.66
1.5845,-0.0127,-0.5317,-83.171,10.549,64.756,1.6714,100744.14
1.668,-0.0117,-1.0977,-137.195,75.915,80.915,1.9968,100743.5
1.981,0.4487,-1.0767,-182.012,121.159,79.39,2.2989,100743.04
0.6997,1.0874,-0.5962,-152.195,-80.244,84.207,1.4239,100743.17
-0.7358,0.4263,-0.002,-13.11,-200.671,48.902,0.8504,100742.91
0.0532,0.396,0.4482,59.451,-5.427,-52.744,0.6005,100742.96
0.6787,0.2622,0.2266,87.256,43.476,-57.134,0.7621,100742.49
0.4985,-0.0142,-0.3818,72.744,-20.366,-52.683,0.6281,100742.41
1.125,0.4976,-0.9482,85.854,109.39,-83.232,1.5532,100741.72
3.0557,0.6992,-1.7739,6.098,220.61,-126.402,3.6018,100741.45
1.5693,-0.2046,-0.9751,108.476,-50.854,-95.671,1.8589,100741.49
-0.1875,-0.5195,0.5322,148.171,-153.963,-56.159,0.767,100741.52
0.2769,-0.4546,0.6519,-47.012,-84.573,-21.159,0.8416,100741.31
0.6792,-0.3604,-0.084,-94.451,-22.378,69.207,0.7734,100741.77
1.5254,-0.0098,-0.3179,-61.098,-4.939,93.476,1.5582,100740.77
1.5142,-0.293,-0.7427,-106.89,37.073,102.195,1.7117,100742.11
2.0234,0.3501,-1.2349,-203.78,125.915,68.232,2.3962,100742.11
1.3833,0.9595,-0.9541,-214.512,10.793,96.646,1.9351,100742.38
-0.356,0.708,-0.4385,-115.976,-136.707,46.768,0.9057,100741.84
-0.1694,0.5503,0.3228,52.012,-104.207,-39.878,0.6601,100741.95
0.4937,0.3018,0.1357,75.732,-34.634,-53.232,0.5943,100742.02
1.0137,0.0493,-0.2769,52.744,-74.329,-76.463,1.052,100742.69
1.1675,0.3525,-0.6572,54.268,28.232,-83.598,1.3854,100743.68
1.7578,0.5298,-1.3936,4.634,119.329,-69.573,2.3049,100743.19
1.3149,-0.1948,-1.2134,76.646,49.024,-40.183,1.7998,100742.45
0.1113,-0.4697,-0.0459,105.732,-106.22,-102.256,0.4849,100742.28
0.3267,-0.5308,0.2432,27.5,-142.378,-20.671,0.669,100741.64
1.063,-0.3867,0.1655,-27.378,-89.329,90.671,1.1432,100741.3
1.5361,-0.0938,-0.6367,-158.354,-0.671,145.305,1.6655,100741.41
1.6748,0.0889,-1.0942,-120.061,32.317,186.524,2.0026,100741.12
1.4707,0.5518,-1.4829,-175.549,142.988,170.549,2.1602,100741.28
0.5957,1.0171,-0.8374,-171.402,3.537,108.11,1.4459,100740.91
-0.3467,0.6772,-0.4307,-80.976,-80.061,37.378,0.8743,100741.4
0.1064,0.418,0.23,66.524,-75.976,-38.841,0.4888,100740.77
0.4678,0.2461,0.2725,92.988,-18.72,-59.695,0.5947,100741.53
0.2158,-0.0054,-0.1382,54.878,-37.622,-72.256,0.2563,100741.72
1.3354,0.6587,-0.7754,45.061,100.671,-90.671,1.6788,100741.88
1.9648,0.5898,-1.2661,44.329,172.744,-37.988,2.4107,100742.23
1.5737,-0.3818,-1.832,100.244,145.427,17.439,2.4452,100742.5
0.5239,-0.2505,-0.1602,165.732,-80.488,-52.012,0.6024,100741.97
-0.1875,-0.377,0.7754,1.646,-97.256,-65.793,0.8823,100741.82
0.9478,-0.4355,0.062,-122.317,36.829,-26.585,1.0449,100742.57
1.3901,-0.0312,-0.2192,-83.11,-28.476,163.293,1.4077,100742.88
1.1255,0.0371,-0.3037,-82.744,-21.646,161.22,1.1663,100741.62
1.9473,0.1689,-1.0259,-211.524,128.963,84.878,2.2074,100741.7
2.0962,1.1138,-1.1855,-225.061,111.829,70.549,2.6533,100740.75
0.376,1.2124,-0.772,-68.537,-1.646,175.549,1.4857,100740.79
-0.3291,0.2129,0.0044,97.866,-175.244,89.878,0.392,100739.72
-0.3394,0.6509,0.4312,121.768,-77.439,-118.354,0.8513,100738.91
0.6035,0.5703,0.1089,51.768,10.244,-129.329,0.8375,100738.92
0.2612,-0.0625,0.019,136.22,-112.012,-40.488,0.2693,100738.69
1.875,0.8853,-0.3525,122.134,146.585,-164.329,2.1032,100739.38
2.751,0.7363,-0.7939,-22.805,169.39,-159.512,2.9564,100739.15
1.4673,-0.8237,-1.9072,38.415,60.854,-54.573,2.5434,100738.85
1.0889,0.1597,-0.4062,163.598,-48.415,-53.354,1.1731,100738.52
0.0645,-0.686,0.5054,62.378,-192.073,-34.085,0.8545,100738.02
0.04,-0.6084,0.7979,-50.976,-63.354,71.585,1.0042,100738.5
1.1831,0.2817,0.0752,-185.122,-65.671,51.707,1.2185,100739.12
1.0186,0.4526,-0.5532,-123.11,-71.037,141.22,1.2443,100739.59
1.8306,0.6914,-1.4424,-115.488,107.012,172.195,2.4309,100739.45
1.4951,0.4692,-1.5312,6.646,17.683,201.89,2.191,100739.95
0.4214,0.6938,-0.7065,32.195,-8.537,145.854,1.0762,100739.96
0.0557,0.626,-0.1313,-57.866,-170.427,-90.366,0.642,100740.09
0.1499,0.4658,0.4849,62.317,-131.28,-99.939,0.6889,100740.54
0.7217,0.1826,-0.126,55.61,35.976,-77.256,0.755,100740.89
1.0146,0.3433,-0.7139,79.512,43.841,-156.89,1.2872,100740.91
2.1035,0.5752,-1.1118,82.439,217.988,-143.11,2.4478,100741.31
1.4766,-0.1108,-1.478,71.951,128.415,-97.744,2.0921,100741.12
0.6426,-0.0728,-0.2427,146.707,-27.988,-64.207,0.6907,100739.09
-0.0977,-0.7246,0.6309,133.354,-169.817,1.22,0.9657,100739.09
0.8784,-0.6597,0.4897,9.695,-31.463,14.207,1.2028,100739.44
1.3159,0.0991,-0.3369,-140.854,-7.073,94.207,1.362,100738.99
0.7129,-0.0835,-0.6284,-105.488,-46.829,190.793,0.954,100739.77
2.1567,0.3242,-1.5688,-211.646,201.159,86.646,2.6866,100740.36
2.3965,0.9453,-1.2148,-169.085,64.878,71.037,2.8483,100740.67
-0.9023,0.5259,0.2368,-37.012,-260.976,175.976,1.0709,100740.78
-0.8784,0.458,0.4502,0.549,-114.024,57.134,1.0881,100741.11
0.8608,0.7866,-0.1689,22.988,60.305,-124.634,1.1783,100741.73
0.8604,0.3242,-0.2988,66.951,-39.207,-129.207,0.9668,100742.08
1.2114,0.4175,-0.9189,74.329,67.195,-96.89,1.5768,100742.84
2.7319,1.0396,-1.0845,91.28,203.476,-100.671,3.1177,100743.53
1.6562,-0.3726,-1.4268,123.171,40.549,-136.037,2.2176,100742.71
-0.2441,-0.8242,0.0845,171.037,-125.976,-52.805,0.8638,100742.07
-0.2754,-0.4521,0.5557,23.659,-105.122,-46.098,0.7675,100740.75
1.0303,-0.3149,-0.0181,-65.671,11.037,-3.902,1.0775,100739.62
1.0869,-0.0176,-0.3145,-63.963,-31.28,126.829,1.1316,100739.65
0.8076,-0.0439,-0.6113,-88.537,-53.11,144.451,1.0139,100739.8
2.3335,0.2261,-1.4048,-141.037,101.768,115.366,2.7331,100740.66
1.7036,0.9023,-1.3867,-141.524,62.134,91.585,2.3748,100740.7
-0.439,1.0732,-0.415,-116.341,-79.695,172.073,1.2316,100741.48
-0.8916,0.2363,0.1255,-23.598,-94.939,59.939,0.9309,100742.18
0.6206,0.6094,0.1421,75.793,33.232,-86.585,0.8813,100743.69
0.8403,0.355,-0.0576,101.037,-8.78,-134.268,0.9141,100744.21
0.6479,0.0752,-0.5903,65.732,-23.78,-130.244,0.8798,100743.61
1.6401,0.6904,-1.1934,69.756,140.305,-136.402,2.1426,100744.03
2.7324,0.6748,-1.8101,14.512,178.049,-135.244,3.3463,100743.98
0.979,-0.5356,-0.8193,139.939,-31.89,-20.183,1.3844,100743.33
0.2837,-0.6333,0.5459,0.122,-46.037,21.89,0.8829,100742.45
1.4756,-0.3735,-0.2754,-119.024,-1.951,69.024,1.5468,100742.43
1.02,0.1665,-0.5894,-140.915,34.146,197.317,1.1897,100742.16
1.708,0.2842,-0.9473,-145.732,102.622,139.939,1.9737,100741.45
2.0859,0.3696,-1.5615,-158.476,113.78,123.659,2.6318,100740.81
0.5928,1.1841,-0.9058,-84.878,5.366,160.854,1.6043,100739.59
-0.7617,0.5254,-0.1328,-21.037,-148.78,69.39,0.9348,100738.55
-0.187,0.4727,0.2451,71.402,-45.122,-68.659,0.5643,100738.52
1.3086,0.6304,0.2017,155.854,-32.5,-220.549,1.4664,100738.98
0.354,-0.1602,-0.2231,79.085,-139.268,-123.78,0.4481,100739.36
1.1982,0.0044,-1.2051,28.963,136.402,-103.476,1.6994,100740.23
2.2969,0.689,-1.1895,70.244,162.134,-151.098,2.6768,100740.28
1.4702,-0.2056,-1.5615,16.037,68.415,-100.366,2.1546,100740.8
0.2456,-0.626,-0.0923,133.354,-68.659,-35.671,0.6787,100741.19
-0.1978,-0.6938,0.9209,66.22,-165.244,-24.939,1.1699,100741.1
1.2051,-0.4834,0.0752,-111.098,35.061,16.585,1.3006,100740.7
1.2461,0.0166,-0.7202,-95.793,18.415,164.207,1.4394,100740.86
0.8745,0.0649,-0.6553,-95.61,42.561,176.28,1.0947,100741.11
2.4292,0.3062,-1.3887,-181.159,207.744,87.622,2.8148,100741.06
1.8506,1.2939,-1.0332,-145.366,10.732,119.085,2.4832,100741.41
-0.9561,0.5557,-0.062,-86.402,-189.146,174.207,1.1075,100741.17
-0.228,0.3691,0.2363,21.707,-49.39,-34.695,0.4941,100740.98
0.8086,0.4956,0.1709,121.768,-11.707,-177.622,0.9637,100741.34
0.2451,0.0103,-0.3428,57.683,-10.183,-103.476,0.4215,100741.98
1.5781,0.415,-0.6963,98.598,118.841,-175.671,1.7741,100742.47
2.9546,0.8013,-1.8379,49.207,230.244,-100.915,3.5706,100741.7
1.3374,-0.3501,-1.0264,177.073,-58.415,-15.488,1.7218,100740.9
-0.4741,-0.7168,0.9614,191.159,-220.122,-21.89,1.2895,100740.53
-0.1348,-0.8862,0.6606,-48.72,-68.841,13.049,1.1136,100740.28
1.5259,-0.0376,-0.1982,-140.732,101.646,27.5,1.5392,100741.2
1.6025,0.0913,-0.5859,-64.634,-4.939,108.659,1.7087,100741.28
1.5205,-0.2881,-0.8057,-46.951,75.793,158.476,1.7447,100741.45
2.0688,0.4673,-1.4229,-190.854,185.305,92.5,2.554,100740.6
1.0137,0.8984,-0.7378,-162.5,-61.768,94.39,1.5424,100740.46
-0.938,0.4517,0.0581,-84.268,-201.463,113.78,1.0427,100740.0
-0.1079,0.8789,0.1831,22.5,-54.817,-48.171,0.9042,100739.9
1.1855,0.4985,-0.0405,133.78,-37.988,-182.866,1.2867,100739.7
0.749,-0.4556,-0.2705,183.963,-112.622,-156.159,0.9175,100739.91
1.8228,0.6187,-0.8711,52.927,138.354,-142.744,2.1128,100739.46
2.144,0.7524,-1.8394,-32.927,203.841,-117.866,2.9234,100739.85
1.0942,-0.856,-1.0063,177.866,-21.037,-30.549,1.7154,100739.8
-0.5693,-0.7461,1.1685,209.756,-241.829,-12.317,1.4987,100740.5
0.2305,-0.7749,0.5605,-81.707,28.72,19.268,0.9838,100741.27
1.5898,-0.2373,-0.3921,-187.988,80.976,45.183,1.6546,100740.46
1.7529,0.293,-0.7983,-85.244,-27.561,127.073,1.9483,100740.62
1.5713,0.1987,-0.9941,-65.427,69.634,184.695,1.87,100740.25
1.9131,1.0493,-1.354,-184.329,114.695,60.366,2.5679,100739.1
-0.4209,0.8076,-0.5176,-132.073,-123.72,116.89,1.0475,100738.63
-1.0078,0.3237,-0.0161,27.378,-136.037,39.512,1.0587,100738.27
1.1392,0.7329,-0.0068,129.817,17.988,-108.476,1.3546,100737.6
0.5327,0.0215,-0.2295,79.573,-93.902,-99.146,0.5804,100737.39
1.1523,0.1211,-0.7451,52.683,-15.976,-126.829,1.3776,100737.34
2.2534,0.7803,-1.3394,50.427,135.671,-187.866,2.7351,100737.05
1.0972,0.0342,-1.3052,61.402,107.134,-25.061,1.7054,100736.97
0.209,-0.6064,0.1602,171.524,-87.988,-92.256,0.6611,100737.18
-0.2012,-1.022,0.5605,84.878,-62.317,-77.073,1.1828,100737.94
1.0625,-0.5576,-0.0278,-64.451,43.476,11.524,1.2003,100738.76
1.0962,0.0195,-0.2104,-76.707,-23.049,151.707,1.1164,100738.86
1.4331,-0.1758,-0.4761,-57.439,62.378,170.122,1.5203,100738.7
2.999,-0.25,-1.6396,-146.159,240.671,117.866,3.4271,100738.82
1.3267,0.624,-1.0098,-162.134,23.902,179.146,1.7802,100737.95
-0.8193,0.8809,-0.2061,-236.768,-119.085,101.402,1.2205,100737.52
-0.2671,0.7383,-0.2515,-33.354,6.037,48.537,0.8244,100737.35
0.8003,0.3779,0.0,201.463,-4.329,-68.232,0.885,100737.84
0.7666,0.2617,-0.0698,135.244,-93.415,-108.72,0.813,100737.59
1.0054,-0.2915,-0.9893,99.878,-20.305,-71.829,1.4403,100736.92
2.0,-0.1226,-1.0146,167.378,164.268,-106.829,2.246,100736.41
1.9229,0.1108,0.0161,83.415,64.573,-124.756,1.9261,100736.52
0.4497,-0.9204,-0.3438,10.61,-48.232,-159.024,1.0805,100735.88
-0.0513,-0.7739,0.0591,47.439,-58.171,61.22,0.7779,100736.48
0.6333,-0.4082,0.2524,-20.305,-40.122,80.976,0.7946,100737.19
1.1567,-0.1187,-0.2534,-119.695,-4.573,52.683,1.1901,100737.09
1.2783,-0.2329,-0.8857,-112.439,29.634,73.232,1.5725,100737.54
1.9985,-0.3604,-1.1655,-53.415,172.866,94.817,2.3415,100737.86
1.7363,0.4727,-0.3071,-46.951,147.134,74.39,1.8255,100738.86
0.0337,0.8169,-0.2471,-146.098,-147.256,-12.073,0.8541,100737.99
-0.4116,0.2275,-0.2563,-52.988,-121.098,28.476,0.5356,100738.83
0.6719,0.6802,-0.2168,71.463,-13.049,-76.89,0.9803,100738.35
1.0415,0.1167,-0.3169,112.378,-133.78,-81.463,1.0949,100737.87
1.0869,0.1089,-0.6064,77.866,4.695,-73.902,1.2494,100737.26
1.5874,0.5059,-0.5952,92.988,170.305,-184.573,1.7692,100736.41
1.5342,-0.436,-0.8379,46.402,114.268,-127.866,1.8016,100736.66
0.1143,-0.9146,-0.0303,104.085,-66.646,-22.439,0.9222,100736.86
-0.0898,-0.8159,0.519,-10.549,-86.463,-6.463,0.9712,100736.39
1.207,-0.2197,0.0015,-139.451,-42.195,15.488,1.2269,100737.4
1.8096,0.3813,-0.5591,-83.415,-11.28,132.927,1.932,100736.53
2.1401,0.4214,-0.6885,-96.951,67.5,149.329,2.2873,100736.78
1.8799,-0.0811,-1.1602,-81.463,68.049,87.073,2.2105,100735.73
0.8892,0.478,-0.9326,-47.866,-23.232,141.951,1.3744,100735.56
-0.3945,0.8174,-0.415,-153.476,-112.439,140.732,0.998,100735.33
-0.312,0.2422,0.0894,18.476,-158.354,8.415,0.405,100735.62
0.3931,0.2744,0.1211,98.476,-54.268,-106.951,0.4944,100735.59
1.1221,0.585,-0.0186,45.976,-37.805,-212.073,1.2655,100735.71
1.5737,-0.0312,-0.9624,45.0,82.134,-179.634,1.8449,100736.42
2.2441,0.0537,-1.9043,127.683,226.707,-58.11,2.9437,100736.08
1.2397,-0.8384,-0.4512,238.659,-57.683,-50.427,1.5631,100735.57
-0.3687,-0.4941,0.6553,55.305,-210.915,-41.768,0.8997,100735.95
0.8052,-0.8535,0.0767,-114.39,-31.585,20.0,1.1759,100736.71
1.2329,-0.3325,-0.3823,-129.695,-88.963,80.305,1.333,100737.44
0.8423,-0.1299,-0.4639,-68.293,-105.427,188.293,0.9703,100737.62
1.3169,-0.0044,-0.9971,-146.159,102.012,153.72,1.6518,100736.86
1.8208,0.4888,-1.6973,-123.232,96.829,79.085,2.5367,100737.44
0.2822,1.103,-0.6729,-9.268,-50.671,194.451,1.3225,100736.87
-0.4795,0.6841,-0.3447,-36.89,-108.537,69.939,0.9037,100737.05
0.375,0.4316,-0.0508,48.72,-49.756,-92.805,0.574,100736.68
0.7197,0.1655,0.0391,145.061,-62.927,-116.22,0.7395,100736.42
0.6948,-0.123,-0.541,144.39,-18.902,-121.28,0.8892,100736.48
1.9336,0.1494,-1.2451,57.256,108.537,-182.927,2.3047,100736.27
1.5132,-0.2319,-1.7153,-11.768,74.268,-132.5,2.2991,100736.23
0.4658,-0.7188,-0.7803,105.366,-27.256,-58.963,1.1586,100736.56
-0.3945,-0.7407,0.6738,87.866,-182.134,-32.5,1.0763,100736.58
0.5669,-0.7153,0.0996,-77.927,16.402,27.5,0.9181,100736.71
1.1099,0.0381,-0.2935,-133.415,-22.683,110.122,1.1486,100736.8
1.4478,-0.2876,-1.0024,-132.866,74.878,167.317,1.7843,100737.27
1.4873,-0.1367,-1.3159,-32.927,120.0,165.915,1.9906,100736.75
1.0464,0.395,-1.5034,-20.549,110.549,156.098,1.8738,100736.73
0.0356,0.5474,-0.7124,-41.707,2.256,122.683,0.8991,100736.97
-0.2485,0.5483,-0.3032,-31.524,-61.28,27.317,0.6741,100736.52
0.5767,0.3896,0.0664,107.927,-115.366,-76.768,0.6991,100737.05
0.7588,0.0005,-0.3169,106.22,-49.207,-143.78,0.8223,100738.09
1.7334,0.3022,-1.2227,37.866,92.5,-184.329,2.1426,100737.49
1.7617,0.1143,-0.6938,89.878,107.683,-162.683,1.8969,100737.79
1.4595,-0.5195,-1.3115,34.817,170.244,-61.341,2.0298,100738.27
0.7314,-0.9556,-0.9873,105.732,-7.073,-63.293,1.5566,100738.88
-0.2539,-0.6035,0.6279,176.22,-181.037,-41.951,0.9072,100738.45
0.9121,-0.6348,0.3433,4.512,1.951,63.171,1.1631,100738.77
0.9243,-0.2119,0.0347,-68.049,-45.732,150.427,0.9489,100738.77
1.1055,-0.3833,-0.6606,-133.841,38.72,168.049,1.3437,100738.77
1.6299,-0.2739,-1.3687,-222.439,174.146,121.524,2.1459,100738.52
1.4692,0.3843,-1.3457,-190.305,105.915,95.427,2.0291,100737.34
0.1978,0.7271,-0.3354,-82.622,-91.646,88.841,0.8248,100736.7
-0.2715,0.5195,-0.1401,9.939,-91.341,53.049,0.6027,100737.23
0.1719,0.1572,0.2236,138.049,-63.232,-59.146,0.3229,100737.09
0.6372,-0.1685,-0.1362,71.524,-48.841,-152.012,0.673,100736.89
1.6426,0.3765,-1.3774,7.927,16.402,-203.354,2.1765,100737.36
2.3462,0.2705,-1.4351,98.049,129.39,-162.927,2.7635,100737.09
1.4072,-0.8677,-1.04,119.878,62.744,-109.451,1.9532,100737.39
-0.0425,-0.8101,-0.0444,131.707,-116.28,-78.902,0.8124,100737.25
-0.2676,-0.4253,0.5142,53.232,-54.085,-11.951,0.7189,100737.62
0.8975,-0.3555,0.0566,-38.72,-0.732,26.037,0.967,100737.42
0.6216,-0.5312,0.0503,-63.293,-6.28,128.963,0.8192,100737.16
1.2881,-0.4756,-1.2261,-184.024,19.207,115.61,1.8408,100737.95
2.3999,-0.311,-1.4404,-138.537,136.098,84.634,2.8162,100737.3
1.5249,0.2241,-0.9917,-117.378,67.195,148.78,1.8328,100737.2
0.2275,0.8428,-0.4536,-198.354,-64.024,149.695,0.9838,100736.75
-0.7119,0.4263,-0.147,-97.195,-81.646,62.5,0.8427,100736.29
0.3594,0.2993,0.2881,145.061,-63.72,-90.122,0.5493,100734.95
0.7534,0.0474,-0.271,67.805,-29.756,-89.939,0.8021,100735.53
0.916,0.1377,-0.8755,71.463,-66.463,-145.061,1.2746,100736.26
1.8008,0.3022,-1.5947,100.305,28.232,-145.0,2.4243,100737.3
1.6099,-0.2832,-1.0479,77.988,54.329,-107.683,1.9416,100737.43
0.6177,-0.6978,-0.6416,-0.183,-0.61,-107.5,1.1314,100737.68
-0.0884,-0.8101,-0.3682,24.939,-28.537,-22.622,0.8942,100738.73
0.0298,-0.6021,0.4438,116.768,-104.39,-15.305,0.7486,100739.15
1.1978,-0.3188,-0.1885,-80.183,16.463,36.585,1.2537,100739.45
1.4302,0.1323,-0.9404,-156.585,24.085,141.037,1.7168,100739.69
1.2334,-0.4985,-1.2661,-110.366,102.012,175.671,1.8365,100739.75
1.6455,0.0117,-1.189,-121.098,176.524,90.244,2.0301,100739.3
0.8213,1.0483,-0.7471,-168.537,-14.207,108.293,1.527,100738.22
-0.7402,0.7476,-0.0659,-81.341,-111.22,144.207,1.0541,100737.55
0.0728,0.2339,0.0024,59.878,-97.012,-73.963,0.245,100737.42
0.7446,0.1152,-0.2363,64.146,-66.098,-165.122,0.7897,100738.16
0.7476,-0.042,-0.8838,53.902,-59.085,-158.963,1.1583,100739.09
1.6792,0.2817,-1.5591,89.329,30.854,-195.793,2.3086,100739.19
1.6802,0.3472,-0.7085,60.122,132.927,-81.951,1.8562,100738.9
0.98,-0.4297,-1.041,-33.476,100.671,-99.39,1.4929,100739.15
0.4697,-0.3999,-0.7954,77.744,-29.573,-60.183,1.0066,100738.75
-0.228,-0.6885,1.1558,211.159,-144.634,-9.634,1.3645,100738.06
0.6475,-0.3213,0.0586,-73.537,-16.28,69.268,0.7252,100739.52
0.9731,-0.3281,-0.5439,-112.317,-12.805,123.171,1.1621,100740.15
1.1025,-0.2319,-1.2607,-155.915,117.073,194.573,1.6908,100739.62
2.5015,-0.1309,-2.085,-104.268,177.378,160.122,3.2591,100738.59
1.2607,0.29,-0.8027,-94.634,-17.5,177.073,1.5225,100737.72
-0.6313,0.3999,-0.123,-166.951,-142.073,133.78,0.7574,100736.82
-0.2129,0.502,0.3271,-53.78,-126.28,2.012,0.6359,100737.39
0.8638,0.6143,0.0151,-12.073,-49.939,-111.463,1.06,100737.43
1.022,0.2241,-0.6646,50.915,-7.317,-103.354,1.2395,100737.34
1.7173,-0.0317,-1.6636,90.549,105.427,-104.817,2.3911,100737.4
1.9238,0.355,-1.624,92.317,112.988,-118.11,2.5426,100738.8
0.6714,-0.4746,-0.7539,128.476,-30.915,-106.037,1.1155,100739.24
0.147,-0.9702,-0.0396,159.695,-92.561,-115.305,0.9821,100739.45
-0.0894,-0.8433,0.5425,78.963,-87.195,-22.561,1.0067,100740.23
0.5864,-0.5283,0.1294,-100.366,-41.341,74.085,0.7999,100740.19
1.4858,-0.0938,-0.4146,-142.988,0.183,127.5,1.5454,100739.3
0.8145,-0.1543,-1.1641,-172.927,19.573,231.463,1.429,100738.16
1.1538,-0.4146,-1.3477,-93.11,111.829,165.61,1.8219,100738.01
1.5132,0.2485,-1.4102,-112.744,139.268,108.78,2.0833,100738.18
0.2637,0.8335,-0.5894,-139.085,0.671,121.524,1.0543,100737.55
-0.2231,0.8169,-0.2422,-83.659,-68.659,56.341,0.8808,100737.7
0.2393,0.5381,-0.0654,48.78,-144.634,-115.732,0.5925,100737.31
0.772,0.2495,-0.2173,104.329,-103.171,-172.317,0.8399,100736.51
1.0264,-0.0771,-1.1245,101.768,-73.598,-174.024,1.5244,100736.18
1.4121,-0.2202,-1.1104,126.402,-5.671,-155.0,1.8098,100736.2
0.4731,-0.8564,-0.4531,77.561,24.268,-69.024,1.0783,100737.05
0.4399,-0.8701,-0.876,-11.951,105.671,-62.012,1.3107,100737.22
1.0283,-0.6328,-1.7847,-3.72,118.354,-1.707,2.1547,100736.48
0.1558,-0.8086,0.5654,79.817,-125.061,52.927,0.9989,100736.41
1.0483,-0.5171,0.2881,-74.207,-28.476,78.049,1.2039,100736.48
1.6484,-0.2651,-0.313,-111.89,85.244,175.366,1.6987,100736.18
1.0034,-0.1504,-0.6436,-142.439,109.939,195.244,1.2015,100736.08
1.3135,0.3428,-1.5342,-247.317,276.951,246.829,2.0485,100736.11
1.6821,0.1772,-2.0454,-259.024,170.061,148.841,2.6542,100736.65
-0.0161,0.5869,-0.7822,-85.61,-69.451,60.915,0.9781,100736.55
-0.1768,0.5918,0.3511,18.841,-87.439,1.402,0.7104,100736.34
-0.1074,-0.0649,0.4863,51.524,-78.293,-49.817,0.5023,100735.58
0.9795,-0.3589,-0.1143,26.707,6.646,-116.341,1.0494,100736.48
2.2275,-0.0195,-1.2456,-81.768,91.646,-88.293,2.5522,100737.55
1.5371,-0.2485,-1.4316,61.524,53.171,-24.573,2.1152,100736.73
0.2935,-0.5391,-2.1338,91.463,50.305,21.22,2.2203,100736.62
0.5737,-0.6929,-0.1812,137.073,-97.378,-101.159,0.9176,100737.05
0.2261,-0.5366,0.8501,-15.854,-112.622,-13.232,1.0304,100736.36
0.9546,-0.6348,0.2979,-186.037,-36.89,60.488,1.1844,100736.59
1.6943,0.0371,-0.1851,-159.085,-2.5,57.317,1.7048,100736.29
1.2368,-0.5566,-0.8247,-160.183,90.488,210.305,1.5874,100736.8
1.5132,0.2124,-1.3491,-160.061,156.159,160.549,2.0384,100737.54
1.7163,1.0669,-1.4731,-251.524,54.695,134.817,2.5008,100736.99
1.7163,1.0669,-1.4731,-251.524,54.695,134.817,2.5008,100735.72
0.1851,0.814,-0.9238,-161.89,-100.671,94.878,1.2451,100735.63
-0.1504,0.6543,-0.0366,49.146,-100.854,-18.293,0.6724,100735.94
-0.2852,0.0693,0.6885,170.793,-117.927,-119.451,0.7484,100737.02
0.6812,-0.2295,-0.0864,32.683,-33.232,-191.402,0.724,100737.49
1.5088,0.2837,-1.208,31.646,20.549,-115.244,1.9535,100737.58
1.9243,0.2656,-1.1924,119.695,30.854,-64.329,2.2793,100737.66
0.9434,-0.1299,-1.2646,60.244,36.646,-64.268,1.5831,100736.73
0.6616,-0.459,-1.2959,37.744,25.183,-75.793,1.5257,100736.52
0.2017,-0.4229,-0.2329,125.366,-71.951,-49.634,0.5232,100736.61
0.2197,-0.2695,0.165,103.841,-133.841,-28.354,0.3849,100737.05
0.8887,-0.6587,0.3091,45.488,-24.512,67.927,1.1485,100737.12
1.0449,-0.0747,-0.2349,-89.695,-17.073,116.341,1.0736,100737.17
1.5991,-0.335,-1.3315,-152.439,112.317,179.024,2.1077,100737.25
1.0742,-0.4976,-0.5415,2.195,111.89,100.793,1.3018,100737.66
1.3506,0.9102,-1.8032,-247.866,160.488,177.012,2.4298,100738.09
0.0303,1.1035,-1.1138,-98.354,-45.793,154.146,1.5682,100737.42
-0.0664,0.6587,-0.4355,7.256,-15.488,101.768,0.7925,100737.54
0.2803,0.0664,0.4468,140.366,-61.89,-45.915,0.5316,100738.27
0.6646,-0.2212,-0.04,128.537,-36.341,-109.329,0.7015,100738.92
2.0571,-0.2588,-0.522,91.28,35.549,-136.098,2.138,100739.29
1.7412,0.2432,-1.271,23.049,38.902,-148.72,2.1694,100740.31
0.833,-0.5122,-2.0322,97.561,156.524,-51.037,2.2553,100739.97
1.6133,-0.3604,-1.1006,153.415,-29.573,-174.878,1.9859,100739.71
0.5449,-0.3745,0.4971,165.671,-203.902,-100.305,0.8272,100739.13
-0.0371,-0.9932,0.873,69.939,-80.427,86.707,1.3229,100740.07
0.7158,-0.8008,0.8628,-93.354,13.598,120.793,1.3777,100740.64
0.5352,0.0259,-0.3027,-165.976,-145.976,75.671,0.6154,100740.09
1.5015,-0.0674,-0.9209,-156.463,127.5,191.768,1.7627,100739.92
1.7383,-0.2759,-1.4976,-179.756,142.134,125.732,2.3109,100740.41
1.1836,0.3491,-1.5244,-100.366,114.207,94.634,1.9613,100739.8
0.7568,0.6211,-0.6768,49.512,26.646,120.244,1.1902,100738.1
-0.2456,0.9717,-0.2388,19.146,-37.988,139.695,1.0303,100738.05
-0.2319,0.5684,-0.1743,8.11,-101.402,57.439,0.6381,100737.92
1.3945,0.5386,-0.2134,104.878,-77.378,-176.22,1.5101,100738.19
1.2944,0.0972,-0.7788,136.646,-160.366,-252.5,1.5138,100738.75
1.7441,-0.228,-1.126,130.0,-18.841,-238.293,2.0885,100739.67
1.2861,-0.9854,-0.4917,121.22,106.89,-178.659,1.6932,100739.0
0.7349,-1.0181,-0.4209,60.183,19.695,-140.305,1.3243,100738.51
0.6318,-0.5781,-0.6567,-25.488,80.915,-36.768,1.0792,100739.24
0.1919,-0.2905,-0.0005,22.561,-43.963,39.39,0.3482,100739.19
0.3584,-0.5078,0.4937,46.585,-25.244,63.171,0.7937,100738.77
0.7866,-0.0488,0.3877,-52.866,-12.134,77.195,0.8783,100738.34
1.229,0.0566,-0.3936,-246.89,2.134,94.573,1.2917,100739.0
2.6348,0.0698,-2.0283,-231.951,145.854,127.317,3.3258,100739.9
1.5015,0.0361,-1.875,-10.915,148.537,292.683,2.4024,100739.45
0.0942,0.5142,-0.3765,-94.817,-10.366,33.72,0.6442,100738.62
-0.458,0.8999,0.0024,-54.39,-110.061,57.378,1.0098,100738.48
0.5547,0.3545,0.3003,99.146,-44.878,-83.72,0.7235,100739.5
0.5454,0.2861,-0.3389,57.866,-102.683,-133.476,0.703,100739.38
1.5518,0.0005,-0.7446,120.0,-4.085,-230.122,1.7212,100740.54
2.3374,0.1567,-1.4463,37.988,151.585,-160.549,2.7531,100740.44
1.3506,-0.5186,-1.6035,68.049,103.659,-65.244,2.1597,100739.47
0.7661,-0.6211,-0.251,194.451,19.878,-59.451,1.0177,100739.49
-0.2969,-0.4971,0.895,116.951,-131.585,-2.012,1.066,100739.4
0.0771,-0.4155,0.5967,-20.183,-155.244,7.073,0.7312,100739.8
1.6187,-0.3125,0.0234,-59.634,44.207,34.695,1.6487,100740.12
1.418,-0.2002,-0.3169,-128.415,22.683,169.878,1.4667,100739.12
0.5273,0.2759,-0.4043,-100.549,-36.22,157.683,0.7195,100737.72
-0.8057,0.6543,-0.2847,-135.305,-117.744,113.476,1.0762,100737.22
0.231,0.5918,0.0117,34.451,-95.488,-66.22,0.6354,100738.05
0.8511,0.5894,-0.1758,99.146,-84.878,-116.037,1.05,100737.83
1.1372,0.0122,-0.5244,78.963,-92.744,-164.878,1.2524,100738.28
2.1606,0.4263,-1.6929,138.598,25.549,-249.207,2.7778,100738.49
2.0312,0.2588,-1.0278,82.5,100.244,-112.805,2.2912,100738.4
0.918,-0.8369,-0.9189,34.024,10.793,-74.756,1.5452,100737.98
0.1514,-0.7725,0.5073,216.707,-141.951,-73.232,0.9365,100738.89
0.1006,-0.5,0.4888,112.134,-84.451,-11.037,0.7064,100738.95
0.9546,-0.1377,0.335,0.244,-17.5,102.744,1.021,100739.11
0.5356,-0.2212,0.2295,-111.402,-51.341,169.268,0.6233,100738.99
1.2837,-0.2612,-1.2251,-228.902,-22.927,154.024,1.7936,100739.66
1.5649,-0.2969,-1.7778,-142.195,198.72,145.122,2.387,100739.02
1.772,-0.0684,-1.3599,-91.28,181.341,139.329,2.2347,100737.58
0.457,0.4341,-0.1919,-91.585,-0.244,216.159,0.6589,100735.16
-0.8179,1.1968,-0.2983,-88.537,-53.354,269.329,1.4799,100733.22
0.1943,0.6357,-0.0288,34.939,-53.78,-55.061,0.6654,100733.36
0.957,0.6289,-0.4722,56.037,-63.963,-195.183,1.2387,100733.86
1.563,-0.1235,-1.3237,128.171,-61.89,-222.988,2.0519,100734.62
2.6748,0.5786,-1.5723,208.171,13.598,-275.0,3.1562,100734.9
1.2817,-0.418,-0.792,94.207,-19.878,-122.561,1.5636,100735.63
0.9048,-1.1177,-0.3999,100.854,-24.512,-206.463,1.4926,100737.17
0.187,-0.6973,0.4219,30.61,-39.085,37.378,0.8361,100736.8
0.5898,-0.3857,0.5996,-30.732,36.829,119.146,0.9253,100736.7
0.9751,-0.3271,-0.1274,-183.232,-1.768,153.415,1.0364,100736.36
1.2778,-0.0615,-0.9341,-205.488,-15.732,176.28,1.584,100736.86
1.7866,-0.0342,-1.8149,-231.585,156.768,150.427,2.547,100736.39
1.4888,0.3301,-1.415,-114.573,159.939,114.451,2.0803,100735.52
-0.2002,0.8462,-0.3906,-47.683,14.329,215.671,0.9533,100734.39
-0.4219,0.4902,-0.3042,-43.049,-79.268,97.927,0.7147,100733.3
0.5312,0.5825,0.0225,71.28,-121.28,-155.0,0.7887,100732.11
0.9355,0.9224,-0.2485,126.829,-40.549,-133.171,1.3371,100732.95
0.978,-0.0923,-0.5552,175.488,-64.024,-227.561,1.1284,100733.21
2.519,0.5659,-1.3413,117.561,28.841,-388.293,2.9095,100734.51
1.4941,0.6206,-0.8438,127.744,11.951,-193.232,1.8247,100736.1
1.8848,-0.8433,-0.5903,201.28,160.671,-214.939,2.1475,100736.44
0.4624,-1.5732,-0.0386,118.293,-13.598,-49.817,1.6402,100737.31
-0.4849,-1.2842,0.3018,47.744,-198.049,7.317,1.4054,100737.47
1.3379,-0.2568,0.5059,-20.305,-44.817,18.415,1.4532,100738.08
0.8335,-0.0488,0.1284,-174.878,10.122,215.61,0.8447,100738.91
1.105,-0.3359,-0.0386,-161.463,-66.707,212.622,1.1556,100737.67
2.3774,0.5259,-2.1172,-306.22,21.646,174.695,3.2266,100737.75
1.3105,0.9409,-1.6353,-146.402,114.512,215.305,2.2972,100737.3
0.313,1.2251,-1.2466,-90.549,87.866,199.939,1.7756,100735.25
-0.2417,0.333,-0.3999,-8.049,-27.866,101.341,0.5738,100734.68
-0.1274,0.0781,0.4302,151.22,-152.866,-114.146,0.4554,100735.26
0.1099,0.2744,-0.4077,-0.793,-47.439,-135.366,0.5036,100736.06
0.833,-0.1343,-0.1128,176.098,-85.244,-199.512,0.8513,100737.52
1.5122,0.2305,-1.6353,-19.39,-80.61,-98.963,2.2392,100738.01
1.7871,0.2163,-1.2993,68.659,53.293,-107.805,2.2201,100738.15
0.8403,-0.2954,-0.7295,104.512,75.976,-69.939,1.1513,100738.1
0.4009,-1.3271,-0.7427,63.537,58.11,41.098,1.5728,100737.81
-0.0381,-0.6196,0.3501,31.829,-60.671,18.293,0.7127,100738.23
0.3628,-0.1172,0.0361,-42.378,-115.61,30.488,0.383,100738.41
0.8525,-0.4111,0.0103,-20.488,22.805,138.415,0.9466,100738.55
1.5786,-0.6113,-1.1284,-113.232,113.11,137.988,2.0345,100737.8
1.6636,-0.6147,-1.3936,-117.439,180.671,109.817,2.2555,100736.73
1.3921,0.2715,-1.5615,-169.207,106.829,92.073,2.1095,100735.55
0.1387,0.8633,-1.103,-224.146,22.5,126.829,1.4075,100735.8
-0.6128,0.5312,-0.1689,32.073,9.024,104.573,0.8284,100735.48
0.293,0.2822,0.4766,201.646,-81.829,-83.293,0.6266,100734.99
0.5015,0.3872,-0.3315,-22.256,-64.573,-134.146,0.7151,100735.73
1.4609,0.0596,-1.043,113.415,-14.024,-154.085,1.796,100735.58
2.0898,0.1279,-1.2402,120.0,20.427,-127.317,2.4335,100735.94
0.9116,-0.2861,-0.9062,31.89,36.951,-112.561,1.3169,100736.21
0.7427,-0.8682,-0.9121,69.085,-6.646,-122.866,1.4619,100737.53
0.3794,-0.937,0.5566,124.39,-2.5,-90.0,1.154,100738.02
-0.1294,-0.4189,0.6196,-30.366,-41.951,31.707,0.7591,100740.13
1.0889,-0.3398,0.2803,-37.866,22.256,0.366,1.1746,100740.34
1.8618,0.0435,-0.8149,-163.78,29.024,100.183,2.0328,100739.91
1.8252,-0.0479,-1.4019,-214.756,73.11,127.012,2.3019,100739.46
2.0356,-0.2007,-1.7393,-67.439,178.841,102.988,2.685,100739.76
1.0225,0.4351,-1.0439,-54.756,23.963,142.683,1.5246,100738.21
-0.0483,0.6533,-0.2056,-203.354,-112.073,135.427,0.6866,100738.31
-0.8701,0.5542,0.2554,-1.28,-77.012,38.171,1.0628,100737.26
0.2437,0.353,0.4102,109.512,-25.793,-122.988,0.5935,100736.98
0.6938,0.1504,0.0532,87.195,-26.951,-153.171,0.712,100738.24
1.2402,-0.0308,-0.7725,30.976,-27.683,-164.085,1.4614,100738.07
2.8564,0.4453,-2.0293,82.439,106.159,-102.439,3.5321,100738.2
1.7417,-0.1978,-1.4805,106.707,89.329,-46.098,2.2944,100737.07
0.375,-0.6558,-0.2598,149.024,-28.78,-13.598,0.7988,100737.72
-0.6362,-0.6123,0.7827,103.476,-68.659,35.671,1.18,100737.93
0.1475,-0.5376,0.6929,12.805,-69.268,-80.183,0.8893,100736.73
1.3208,-0.2446,0.2104,-79.146,43.415,8.11,1.3596,100737.09
1.0439,-0.0688,-0.4292,-208.232,17.805,167.744,1.1308,100737.24
2.0654,0.085,-1.5815,-229.146,66.829,92.622,2.6028,100737.71
1.9453,0.2734,-1.6763,-101.28,171.768,92.5,2.5824,100737.33
1.0381,0.4751,-0.3896,-68.171,-1.159,104.268,1.2063,100735.8
-0.627,0.8721,-0.1304,-98.354,-105.427,111.22,1.0819,100735.91
-0.4077,0.5181,0.1401,48.537,-26.28,-0.244,0.674,100736.21
1.0986,0.1289,0.1582,173.293,27.073,-104.878,1.1174,100736.22
0.439,-0.1348,0.2153,165.366,-21.22,-93.049,0.5072,100736.95
2.3726,0.5146,-1.0586,36.28,1.22,-155.305,2.6485,100736.41
3.1147,0.1528,-1.8516,-24.024,111.89,-88.598,3.6267,100736.6
0.6587,-0.9004,-1.2158,115.976,-9.268,-30.549,1.6501,100737.87
0.0898,-0.7695,1.064,273.354,-91.341,-137.927,1.3162,100737.82
-0.3447,-0.3003,0.6343,-74.573,-164.573,2.927,0.7819,100737.8
0.6167,-0.0918,0.1006,-160.061,-54.329,57.927,0.6316,100739.38
1.2573,-0.1074,0.165,-80.183,-24.39,61.22,1.2727,100739.59
1.4209,0.4312,-1.0166,-211.402,31.159,148.232,1.7995,100738.49
2.5171,0.1753,-1.4419,-136.768,123.902,77.683,2.9061,100737.55
0.9697,0.417,-1.5117,-83.841,133.476,118.659,1.8438,100738.2
0.6143,0.7759,-0.2915,-110.915,-61.22,47.5,1.0316,100737.09
-0.7466,0.6987,-0.0845,-19.39,-89.878,54.878,1.026,100736.37
-0.1323,0.3999,0.3989,105.305,-8.415,-41.829,0.5801,100736.34
0.9136,0.3711,-0.23,110.976,-13.537,-132.5,1.0125,100736.69
1.2539,0.1309,-0.1538,134.268,-43.659,-170.915,1.2701,100737.05
2.1602,1.0508,-1.3188,94.329,82.439,-146.098,2.7404,100736.74
1.9639,0.1426,-1.0605,118.11,157.988,-65.122,2.2365,100736.38
1.251,-0.5786,-0.7046,139.207,-27.927,-100.061,1.548,100736.22
-0.0605,-0.8286,0.437,135.122,-91.829,-49.573,0.9387,100736.38
-0.3501,-0.7178,0.7466,8.415,-76.28,-9.939,1.0932,100736.09
0.9155,-0.1655,0.1709,-71.402,-6.463,22.378,0.9459,100736.39
1.5337,-0.0273,-0.3267,-72.134,39.268,106.707,1.5683,100737.09
2.0259,-0.1436,-0.7773,-94.573,59.573,117.683,2.1746,100737.16
2.2793,0.2383,-1.4663,-193.72,77.866,138.659,2.7207,100737.82
0.625,0.7358,-0.9341,-203.354,-57.317,146.341,1.3434,100737.68
-0.3516,0.835,-0.2642,-117.988,-101.829,80.305,0.9437,100737.22
-0.4976,0.686,-0.1279,10.366,-64.634,19.512,0.8571,100737.37
0.7051,0.5112,-0.1387,102.622,-34.146,-96.829,0.8819,100736.23
1.4531,0.1899,-0.1221,140.976,-13.232,-151.585,1.4706,100736.49
2.3306,0.5278,-1.1543,158.171,9.451,-155.549,2.6538,100736.44
1.3379,0.0981,-1.0723,29.939,106.829,-59.634,1.7174,100736.16
1.2969,-0.4673,-0.8008,91.585,12.134,-65.854,1.5942,100735.81
-0.1914,-0.6191,0.499,148.232,-107.683,-53.171,0.8179,100737.67
-0.0088,-0.5498,0.0425,-40.793,-45.305,3.902,0.5515,100737.7
0.3223,-0.3906,0.4351,-43.11,-35.305,31.402,0.6676,100737.74
0.7568,0.0132,-0.1587,-92.378,-23.049,60.793,0.7734,100737.75
1.9253,0.1279,-1.0933,-143.902,35.366,57.378,2.2177,100738.0
2.6045,-0.2119,-1.1499,-84.207,75.671,69.207,2.8549,100737.82
0.6396,0.7153,-1.5562,-128.293,64.939,257.927,1.8282,100738.07
0.5298,0.7368,-0.4155,-142.195,-90.671,34.939,0.9981,100736.89
-0.6523,1.0464,-0.7075,-67.744,-30.61,59.085,1.4216,100736.62
-0.0542,0.3296,0.6484,188.354,47.195,-63.415,0.7294,100737.43
0.4971,0.0498,-0.1309,104.573,8.963,-128.293,0.5164,100738.52
1.3462,0.1382,-0.3311,53.72,-11.037,-178.293,1.3932,100739.59
2.2876,0.959,-1.5913,44.085,59.451,-137.134,2.947,100741.0
1.7466,0.3345,-1.251,65.427,131.341,16.402,2.1743,100740.44
1.0244,-0.2959,-0.8838,130.915,-11.341,-63.354,1.3849,100740.65
0.3467,-0.6284,0.8535,253.537,-67.561,-96.646,1.1152,100741.05
-0.4414,-0.668,0.5977,-53.476,-29.146,63.171,0.9991,100742.34
0.5801,-0.1514,-0.0107,-123.049,-18.598,53.354,0.5996,100742.3
1.4004,-0.0938,-0.0991,-93.049,42.012,68.841,1.407,100742.05
2.2329,-0.0361,-0.8101,-96.707,92.561,85.305,2.3756,100742.86
1.7197,0.0352,-1.0933,-163.354,122.683,135.854,2.0381,100742.23
1.293,0.5259,-0.8521,-240.793,16.707,143.598,1.6353,100740.89
-0.6143,0.7554,-0.3213,5.427,19.634,76.768,1.0252,100738.69
0.5767,0.3242,0.1611,89.146,-10.427,-67.927,0.6809,100738.59
0.8008,0.2437,-0.0708,103.537,-16.037,-97.744,0.84,100738.66
2.3472,0.498,-0.209,152.073,26.098,-157.134,2.4085,100738.72
2.4468,0.5249,-1.52,24.268,62.073,-125.793,2.9279,100739.48
1.3218,-0.3442,-1.1987,114.329,71.89,-11.28,1.8173,100739.3
0.8193,-0.251,0.1357,226.646,-45.061,-126.28,0.8676,100740.05
-0.1758,-0.5176,0.6836,88.841,-77.195,-51.463,0.8753,100740.85
-0.1406,-0.5962,0.3472,-77.073,-56.646,27.378,0.7041,100742.66
1.0347,-0.2041,0.1572,-33.841,-7.439,10.61,1.0663,100742.44
1.2803,-0.1968,0.0283,-85.549,-11.463,78.841,1.2956,100741.52
2.8711,0.1343,-1.1362,-128.78,32.622,60.366,3.0907,100739.97
1.5645,0.3745,-1.1045,-220.427,53.476,133.415,1.9513,100739.91
0.3535,0.7466,-0.481,-223.232,-49.817,101.159,0.9559,100739.02
-0.1836,0.8794,-0.8096,-136.89,-70.976,61.524,1.2093,100737.37
-0.2417,0.3926,0.0405,60.976,-8.049,62.195,0.4628,100736.24
0.1821,0.2104,0.2842,96.951,-44.634,-77.805,0.3978,100736.25
0.8306,0.252,-0.2793,97.744,-43.415,-142.073,0.9118,100737.76
2.2515,0.646,-0.8535,194.39,-6.585,-124.451,2.493,100738.01
2.4824,1.1279,-1.1694,84.573,70.244,-77.683,2.9669,100737.84
1.001,-0.4458,-0.8828,58.902,66.585,-24.024,1.4071,100737.68
0.7183,-0.4268,-0.0693,220.366,-80.427,-200.244,0.8383,100738.7
0.2456,-0.4395,0.3779,135.488,-6.402,-65.854,0.6295,100739.95
-0.0454,-0.5791,0.4067,-32.866,-52.622,21.037,0.7091,100740.51
1.0015,-0.2319,0.0195,-96.28,-27.256,32.317,1.0282,100741.77
2.8232,0.1587,-1.3906,-110.183,50.732,68.293,3.1511,100741.51
1.9648,0.4185,-1.3931,-158.841,34.939,199.939,2.4447,100741.56
0.4111,0.54,-0.4526,-253.232,-81.951,165.061,0.8158,100741.61
-0.2632,0.9263,-0.3223,-142.561,-94.207,105.244,1.0154,100741.53
-0.3696,0.5601,-0.1641,37.195,19.878,71.159,0.6908,100741.72
0.5005,0.1426,0.0454,88.537,-9.573,-60.671,0.5224,100740.75
0.7246,0.2144,-0.501,66.524,-19.817,-102.744,0.9066,100741.63
2.0269,0.8384,-1.1709,94.878,37.195,-104.634,2.4864,100741.3
2.0864,0.4814,-1.5601,119.39,99.329,-36.341,2.6493,100740.56
1.0737,-0.54,-0.522,184.329,16.402,-57.805,1.3103,100740.12
-0.0684,-0.7476,0.3804,155.549,-126.89,-160.366,0.8415,100740.66
0.0059,-0.5649,0.6392,47.256,-61.524,-85.793,0.8531,100741.55
0.625,-0.1924,-0.1714,-151.768,5.244,22.378,0.676,100741.23
1.0796,-0.0757,0.1133,-43.232,-20.549,28.72,1.0882,100741.74
1.1602,0.0342,-0.5317,-128.659,-25.0,83.11,1.2767,100741.52
2.7598,0.1973,-1.5396,-197.5,81.89,103.598,3.1663,100740.6
1.5923,0.438,-1.3887,-135.122,49.695,120.854,2.1577,100740.79
0.5879,0.6841,-0.5239,-139.939,-59.207,98.354,1.0431,100740.43
-0.4121,0.7793,-0.5034,-105.0,-97.988,80.305,1.0152,100739.29
-0.6831,0.3564,0.2422,43.049,-23.659,36.463,0.8077,100738.45
0.3379,0.3911,0.021,81.463,-0.427,-85.061,0.5173,100738.59
0.5981,0.1494,0.1113,114.207,10.732,-113.415,0.6265,100739.52
1.3657,0.5508,-0.8652,108.902,30.61,-141.463,1.708,100739.98
1.4683,-0.1865,-1.3608,83.841,67.805,-57.927,2.0106,100739.27
0.8164,-0.4214,-0.1362,156.768,-4.085,-121.402,0.9288,100740.43
0.4146,-0.3853,-0.0479,65.793,-22.439,-54.939,0.5679,100741.53
0.042,-0.522,0.1455,-8.11,-54.024,41.402,0.5435,100741.39
0.7363,-0.2993,0.4556,-19.146,-49.573,36.22,0.9161,100740.91
1.4531,0.1455,-0.3237,-94.207,-40.549,36.098,1.4958,100740.91
2.6255,0.167,-1.4478,-70.61,32.378,74.695,3.0028,100740.69
0.9932,0.1055,-1.5767,-79.756,87.073,186.037,1.8664,100740.39
0.689,0.3701,-0.1777,-184.451,-16.098,114.817,0.802,100739.55
0.0537,0.7812,-0.752,-197.134,-141.463,-33.354,1.0857,100739.17
-0.373,0.5679,-0.1045,3.171,-41.037,46.159,0.6874,100739.76
0.0127,0.3843,0.2256,106.402,-37.317,-41.22,0.4458,100740.45
0.6968,0.229,-0.2095,89.512,-32.378,-118.598,0.7628,100740.95
2.2354,0.751,-1.27,156.22,42.866,-92.378,2.6784,100741.06
1.6738,0.4092,-1.5093,28.841,120.488,-1.159,2.2906,100741.8
0.8638,-0.666,-0.8037,52.012,16.098,-9.268,1.3549,100741.62
0.5044,-0.3672,-0.1963,79.207,-66.585,-145.61,0.654,100740.61
0.2603,-0.5713,0.3306,13.354,-45.183,-59.634,0.7095,100740.21
0.043,-0.4614,0.3193,-68.049,-78.354,25.671,0.5628,100740.41
0.7329,-0.2144,0.2524,-60.122,-37.744,28.902,0.8043,100739.84
1.9971,-0.0464,-0.7529,-113.963,46.28,106.098,2.1348,100740.02
2.6377,-0.1035,-0.9116,-100.61,89.085,166.89,2.7927,100740.02
0.8135,0.8623,-1.5098,-253.963,40.0,158.72,1.9196,100740.53
0.2339,0.6831,-0.7256,-262.988,-59.207,44.817,1.0236,100741.05
0.0811,0.5439,-0.7173,-61.951,-4.756,30.854,0.9038,100740.45
-0.043,0.377,0.0283,62.134,58.72,68.354,0.3804,100739.0
-0.2969,-0.0396,0.6602,94.878,4.146,8.11,0.7249,100738.66
1.127,0.127,-0.2021,51.585,0.854,-146.402,1.152,100739.02
2.6182,0.7622,-1.2524,54.817,53.11,-149.329,3.0007,100739.05
1.519,0.5767,-1.4102,-7.744,59.573,-21.829,2.1514,100738.44
0.6221,-0.0522,-1.502,-36.585,46.098,98.72,1.6265,100739.36
1.1631,-0.4185,-0.0405,83.902,46.037,-3.963,1.2367,100739.92
0.7891,-0.4399,-0.0625,28.963,-12.378,-47.012,0.9056,100740.34
-0.0815,-0.334,0.4546,-24.329,-74.634,20.854,0.57,100741.41
0.4917,-0.0615,0.4873,-62.073,-26.341,6.951,0.695,100740.95
1.0479,-0.1982,0.0933,-131.524,5.122,65.854,1.0705,100740.75
2.0986,-0.1973,-0.5508,-60.854,50.915,50.732,2.1787,100740.85
1.9253,0.2383,-0.8882,-148.902,78.537,117.073,2.1336,100741.04
1.4556,0.7202,-1.1274,-265.915,56.28,104.329,1.977,100741.43
0.6279,0.5879,-0.7295,-196.463,-86.646,6.22,1.1279,100740.48
0.0972,0.458,-0.4883,-68.841,-27.561,57.561,0.6765,100740.77
-0.2388,0.02,0.3716,34.695,-8.598,44.207,0.4421,100740.87
0.1406,0.1953,0.0498,-35.549,-88.293,-44.695,0.2458,100740.43
1.2358,0.3726,-0.3208,47.988,20.0,-63.171,1.33,100740.61
1.9604,0.7124,-0.375,49.146,14.268,-53.72,2.1193,100739.78
1.521,0.6309,-1.0103,-35.793,-8.232,-46.341,1.9318,100740.61
1.6411,0.1978,-1.7207,96.768,15.488,22.866,2.386,100741.26
1.1138,-0.1978,-0.6523,166.463,-85.854,-46.402,1.3058,100740.74
0.0215,-0.4946,0.5278,78.72,-98.841,-76.646,0.7237,100740.72
-0.1558,-0.4893,0.5469,9.146,-91.585,11.646,0.7501,100741.7
0.8013,-0.2759,0.2817,1.22,-22.378,-1.951,0.893,100741.82
1.9595,0.2661,0.1147,-22.195,-32.622,-5.854,1.9808,100741.67
2.0493,0.3472,-1.5591,-202.988,-34.146,143.476,2.5983,100741.19
0.8091,0.2939,-1.4863,-56.037,107.683,159.695,1.7176,100741.95
0.8994,0.54,-0.5073,-216.89,16.707,71.341,1.1653,100741.27
0.0781,0.5093,-0.814,-245.915,-58.841,73.476,0.9633,100740.51
-0.1709,0.334,-0.2158,54.085,29.939,74.695,0.4328,100739.96
-0.1235,0.2432,0.4062,95.549,-21.524,-20.671,0.4893,100740.04
0.6045,0.2246,-0.064,46.402,0.244,-78.232,0.648,100740.34
1.792,0.6494,-0.2007,109.329,19.268,-103.049,1.9166,100740.08
1.8213,0.689,-1.2437,-42.134,136.768,-4.451,2.3105,100740.12
1.686,-0.1533,-1.2905,87.622,186.768,86.829,2.1288,100741.38
0.9561,-0.4663,-0.0781,186.768,23.963,-95.244,1.0666,100741.48
0.6846,-0.3911,0.0791,15.427,-59.024,-40.183,0.7924,100740.7
-0.1143,-0.3311,0.6636,-32.805,-121.707,69.024,0.7503,100740.83
0.3999,-0.2539,0.4102,-120.183,-53.354,55.061,0.6266,100740.7
1.7046,-0.021,-0.2686,-119.817,21.22,57.805,1.7257,100740.98
2.207,0.0503,-0.1987,-47.073,68.354,80.366,2.2165,100740.7
1.2344,0.644,-1.1753,-191.951,57.561,33.78,1.822,100739.98
0.8418,0.7163,-0.7715,-129.939,18.78,29.512,1.3479,100740.33
0.7803,0.6787,-0.5415,-76.768,-7.927,0.915,1.1673,100739.59
-0.1187,0.1099,-0.4116,-5.976,-96.524,-38.11,0.4422,100739.41
-0.2212,0.1899,0.3311,68.049,-15.793,-8.841,0.4411,100738.16
0.9326,0.4751,0.1318,63.841,33.11,-90.366,1.0549,100739.09
1.6304,0.9409,-0.7021,65.488,49.756,-101.89,2.0091,100740.55
2.21,0.6826,-1.3208,18.659,112.866,-30.305,2.6635,100741.37
1.6021,0.04,-0.9585,53.841,41.463,-51.585,1.8673,100742.0
0.5815,-0.4746,0.2471,103.963,-87.134,-43.78,0.7902,100741.72
-0.1948,-0.4355,0.8574,89.085,-110.183,34.146,0.9812,100742.5
0.7207,-0.479,0.7871,-36.951,3.476,53.659,1.1698,100742.95
1.561,0.0903,-0.2109,-128.537,-25.122,61.463,1.5778,100743.31
1.6997,0.311,-0.4097,-131.585,-7.866,81.037,1.7758,100742.56
1.7856,0.4771,-0.7891,-148.476,107.622,115.0,2.0097,100742.4
1.2275,0.7197,-0.834,-145.427,58.659,108.841,1.6494,100742.15
0.2974,0.8311,-0.4937,-170.793,-47.622,50.427,1.0113,100740.48
-0.5469,0.396,-0.3721,-37.256,-85.183,6.707,0.7709,100739.62
0.1333,0.3647,0.1694,55.488,-28.415,-42.744,0.4237,100739.59
0.9966,0.4727,0.144,75.122,1.768,-96.585,1.1124,100740.05
1.6592,0.5312,0.1079,86.707,13.232,-126.585,1.7455,100739.91
2.2568,1.0312,-0.7114,158.841,72.134,-82.927,2.5813,100741.05
1.5029,0.1025,-1.8218,147.256,92.683,11.28,2.3639,100741.54
0.8721,-0.1865,0.1094,155.0,-6.463,-66.22,0.8985,100741.77
0.2637,-0.2578,0.5854,71.829,-72.012,-70.244,0.6919,100742.32
-0.2881,-0.5557,0.4155,-50.671,-35.854,20.549,0.7513,100742.85
1.1045,-0.2305,0.7065,-20.305,31.037,-18.72,1.3312,100742.88
0.7876,0.2231,0.2505,-162.134,-54.085,92.073,0.8561,100743.39
1.9756,0.3013,-0.4854,-159.085,-10.732,77.5,2.0565,100743.52
2.1797,0.4658,-1.4653,-128.171,53.598,203.659,2.6674,100742.9
1.167,0.9175,-0.8423,-234.634,5.305,101.707,1.7068,100742.06
-0.3774,0.792,-0.7124,-222.744,-79.817,17.866,1.1301,100740.3
0.0195,0.5933,0.2344,120.671,69.085,47.744,0.6382,100740.09
0.478,0.5659,0.3379,71.463,6.098,-22.317,0.8142,100740.3
1.7388,0.291,-0.4189,3.841,-16.341,-53.78,1.812,100739.87
1.9365,0.625,0.2686,269.756,33.171,-189.024,2.0525,100739.64
1.1704,0.5293,-0.7129,22.683,49.573,-17.866,1.4691,100740.0
1.46,-0.1904,-0.9102,23.598,9.939,37.561,1.7309,100740.52
0.5117,-0.6333,0.0903,215.671,-62.622,-60.976,0.8192,100740.75
0.0078,-0.4941,0.4814,66.768,-90.122,38.537,0.6899,100741.55
0.3911,-0.4756,0.7104,1.28,-60.732,-17.256,0.9402,100742.54
1.2656,0.0967,0.0249,-88.11,-25.122,48.354,1.2696,100741.9
1.9414,0.542,-0.0532,-199.878,-22.866,73.354,2.0163,100741.32
1.9619,0.4946,-0.8477,-155.183,10.671,39.39,2.1937,100740.75
1.6738,1.0986,-1.9707,-141.768,94.146,150.549,2.8093,100740.58
0.4722,0.9478,-0.2373,-144.695,-81.829,52.073,1.0851,100739.59
-1.1646,0.4814,-0.4897,-82.256,-83.537,78.963,1.352,100738.47
-0.3037,0.2803,0.8003,144.085,1.037,-46.341,0.9007,100737.76
0.4746,0.6753,-0.4072,104.817,-5.305,-170.366,0.9204,100738.09
1.4282,0.02,0.4346,187.378,56.768,-185.61,1.493,100739.46
2.229,1.2988,-0.9443,236.951,60.732,-206.098,2.7472,100740.1
1.7871,0.9536,-1.2417,-96.341,120.0,4.451,2.3759,100740.71
1.3818,-0.3159,-1.2397,26.28,25.061,40.305,1.8831,100741.9
0.272,-0.8057,1.1313,398.232,-65.366,-97.988,1.4153,100742.07
-0.2188,-0.8042,0.6924,26.463,-81.951,13.659,1.0835,100741.82
1.3677,-0.2397,0.1299,-138.476,16.22,52.378,1.3946,100741.14
1.8457,0.4155,0.5259,-66.28,21.22,106.037,1.9636,100741.48
2.0479,0.9521,-0.4473,-231.22,-65.061,71.646,2.3022,100742.51
1.5093,0.6934,-1.9053,-212.622,56.829,172.805,2.5276,100742.04
1.0811,0.7383,-0.542,-117.805,-1.768,167.256,1.4169,100741.42
-0.6597,0.6396,-0.1758,-156.159,-169.817,36.768,0.9355,100739.99
-0.6938,0.3589,0.2144,17.256,-49.817,-0.976,0.81,100739.67
0.1768,0.7939,0.0161,76.402,-20.366,-50.305,0.8135,100739.19
0.4102,0.1895,0.2046,89.817,49.756,-82.134,0.496,100738.67
2.3696,1.29,-1.0786,93.902,37.561,-201.159,2.9056,100739.05
2.4512,1.0605,-1.8276,114.024,167.317,-41.037,3.2362,100739.32
1.4771,-0.5918,-0.3638,109.939,71.829,36.098,1.6322,100739.52
0.79,-0.7241,0.3882,120.427,-20.61,-82.317,1.1398,100739.56
-0.2178,-0.6938,0.3276,61.585,-128.11,31.159,0.7976,100739.97
0.1797,-0.5947,1.0093,-59.939,25.854,80.915,1.1852,100740.02
1.2788,0.3345,-0.0498,-175.183,-84.329,79.024,1.3228,100740.69
1.1079,0.3271,-0.4272,-140.427,-66.524,102.866,1.2317,100740.58
2.5347,0.1411,-1.1709,-52.073,110.61,92.195,2.7956,100739.75
1.6719,0.6904,-1.0654,-314.573,21.951,100.915,2.0993,100738.88
-0.0684,1.3491,-0.4673,-327.256,-145.0,21.585,1.4294,100737.37
-0.9985,0.8857,-0.4531,50.366,-23.232,54.878,1.4096,100736.62
0.082,0.4141,0.333,184.146,47.012,17.561,0.5377,100736.8
0.8623,0.687,-0.481,141.524,-9.756,-162.073,1.2029,100736.79
1.981,0.2896,-0.021,255.549,37.256,-117.5,2.0021,100737.29
2.4922,0.8164,-0.127,275.0,34.329,-226.402,2.6256,100737.04
1.2212,-0.0078,-0.5742,-6.098,115.305,-134.39,1.3495,100737.22
1.0435,-0.4678,-0.9097,67.927,76.524,-46.524,1.4612,100737.59
0.1299,-0.4624,0.1553,116.951,-37.988,-25.732,0.5048,100736.65
-0.1831,-0.5864,0.292,16.707,-60.061,12.317,0.6802,100736.3
1.2222,-0.3086,1.0508,47.5,15.549,-59.451,1.6411,100736.92
1.0425,0.3999,-0.1943,-55.854,-115.427,85.732,1.1333,100737.51
2.0566,0.3379,-1.0894,-123.476,26.402,172.256,2.3517,100737.46
2.9434,0.2222,-1.5669,-169.39,145.915,271.951,3.3418,100737.42
0.6426,0.5957,-0.4326,-235.122,-21.341,146.098,0.9772,100736.64
-0.5693,0.8105,-0.3667,-312.012,-121.89,32.561,1.0562,100735.93
-0.9048,0.5693,0.2192,54.817,-30.976,-16.402,1.0913,100736.27
0.3032,0.5649,0.2495,179.939,55.793,-124.329,0.688,100736.91
0.8921,0.3901,0.2339,147.134,44.695,-108.476,1.0014,100736.63
1.9731,0.6211,-1.0635,125.122,2.256,-119.817,2.3259,100736.41
3.0308,0.895,-1.5078,128.902,160.671,-30.61,3.5014,100735.89
1.5557,-0.4663,-0.6738,134.024,129.085,69.146,1.7583,100735.51
0.0552,-0.6436,0.7144,202.378,-75.305,-109.024,0.9631,100735.59
-0.2666,-0.6372,0.6733,-2.317,-100.793,-73.659,0.9646,100734.04
0.0757,-0.6304,0.2642,-148.293,-44.695,30.671,0.6877,100734.48
1.1797,-0.0957,0.6157,-3.78,60.244,-10.305,1.3341,100735.68
1.5918,0.3418,-0.436,-157.744,-57.622,43.354,1.6855,100735.34
2.6616,0.4873,-0.6475,-137.073,100.244,82.866,2.7822,100735.21
2.1519,0.7275,-1.1201,-178.293,78.049,118.354,2.5327,100734.75
0.2231,0.8813,-0.4521,-351.951,-171.768,73.354,1.0154,100733.29
-0.8516,0.4893,-0.3384,-87.134,-54.878,69.085,1.0388,100732.69
-0.6582,0.335,0.5176,191.402,88.171,5.549,0.9018,100733.12
0.8027,0.5044,0.1074,84.695,13.11,-123.171,0.9541,100733.31
1.4346,0.0879,-0.3296,99.329,18.841,-112.073,1.4746,100733.45
2.6562,0.6895,-1.0581,166.341,19.512,-100.61,2.9412,100732.33
2.585,1.4165,-0.813,142.012,115.915,-74.756,3.0577,100731.98
2.585,1.4165,-0.813,142.012,115.915,-74.756,3.0577,100732.58
1.1313,-0.5542,-0.7148,36.829,83.598,9.573,1.4485,100732.17
0.5752,-0.6812,0.3936,169.939,-39.451,-42.988,0.9745,100732.35
-0.4155,-0.5312,0.79,30.976,-147.195,38.537,1.0388,100732.49
-0.1982,-0.5996,0.8481,-95.671,-95.61,31.037,1.0574,100732.48
1.3486,0.1602,0.0576,-124.939,-12.683,21.098,1.3593,100732.48
0.3896,0.209,-0.1377,-169.878,-66.341,174.573,0.4631,100732.73
1.9297,0.1431,-0.729,-87.5,27.927,-2.195,2.0678,100732.28
3.6465,1.0444,-1.8257,-26.585,93.171,-25.976,4.2096,100732.46
0.877,0.9058,0.0596,-149.085,-9.695,116.829,1.2621,100732.59
-0.5498,0.6479,-0.6079,-293.415,-141.89,75.488,1.0448,100732.2
-1.1157,0.1689,0.0,41.159,-25.671,44.573,1.1284,100731.91
0.1162,0.3081,0.4849,155.915,39.451,-93.598,0.5861,100731.55
0.749,0.3989,0.0645,132.988,25.488,-130.0,0.8511,100730.93
1.1318,0.3882,-0.5459,94.756,4.207,-120.793,1.3152,100731.46
3.1636,1.6914,-1.5552,134.207,52.012,-186.22,3.9099,100731.48
1.9014,0.165,-1.0088,72.622,80.976,-37.378,2.1587,100732.21
0.6094,-0.667,-0.25,172.988,75.488,6.829,0.9374,100732.3
0.0557,-0.0698,0.2661,131.646,-36.768,29.207,0.2807,100733.22
-0.3701,-0.5283,0.7461,-39.634,-81.524,89.878,0.9863,100734.29
1.2119,-0.1079,0.4434,-17.073,-34.207,-38.049,1.295,100733.86
2.6938,0.9312,-1.6318,-168.902,89.817,55.122,3.2843,100733.3
0.7642,0.5952,-0.689,-71.098,42.744,117.134,1.1887,100732.48
-0.1738,0.6685,-0.3936,-112.012,-45.549,56.585,0.7949,100732.23
-0.4346,0.3403,-0.1255,84.268,-47.744,-9.573,0.5661,100732.08
-0.0405,0.3242,0.3203,124.207,-43.415,-46.951,0.4576,100731.72
0.9458,0.5093,-0.1929,69.939,-16.402,-126.402,1.0914,100731.56
2.0728,0.6089,-0.623,147.439,38.659,-107.012,2.2484,100731.45
2.2852,1.1909,-0.3555,119.634,101.524,-97.134,2.6013,100732.23
1.4331,-0.146,-1.3994,-71.707,65.0,17.317,2.0083,100732.21
0.957,-0.5552,-0.356,109.146,18.476,18.232,1.1623,100732.55
-0.1255,-0.4424,0.7397,123.049,-108.11,-62.256,0.871,100733.45
-0.2705,-0.5381,0.5977,-72.988,-71.402,35.732,0.8485,100733.98
0.8862,-0.0439,0.5884,-91.28,29.268,29.207,1.0647,100732.76
0.8784,0.1333,-0.291,-121.524,-46.951,64.756,0.9349,100732.98
2.7915,0.2407,-1.3086,10.366,48.293,75.305,3.0924,100733.03
2.8369,0.2007,-1.1108,-116.524,79.878,172.561,3.0532,100733.18
0.4287,0.4399,-0.4141,-241.22,-67.073,98.354,0.7408,100732.05
-0.0386,0.7637,-0.4697,-185.366,-90.549,10.488,0.8974,100731.22
-0.5049,0.5884,-0.2783,74.146,-9.939,60.549,0.8237,100730.96
-0.0234,0.3022,0.2188,142.988,-41.22,13.415,0.3738,100730.77
0.4624,0.3413,0.083,76.524,-25.427,-61.768,0.5807,100730.75
0.9463,0.1929,-0.2363,115.061,-5.61,-95.61,0.9942,100730.71
2.3057,0.7627,-0.9976,64.085,57.866,-105.854,2.6254,100731.56
1.3599,-0.3413,-0.8389,109.146,15.488,-179.329,1.6338,100731.78
0.4253,-0.2871,0.127,154.085,-12.5,-68.476,0.5286,100732.13
0.4131,-0.2646,0.6357,16.037,-57.622,-45.793,0.803,100732.24
0.6484,-0.1494,0.1426,-81.341,-61.646,12.988,0.6805,100732.73
1.2061,0.2788,-0.1362,-135.061,-34.695,105.915,1.2453,100733.58
1.7373,0.3569,-0.3726,-74.756,-49.207,42.012,1.8123,100733.7
2.7134,0.7783,-1.3887,-115.427,95.61,118.659,3.1459,100732.46
0.7329,0.9946,-1.0352,-162.744,-62.195,77.5,1.6118,100731.53
-0.0679,0.7256,-0.2812,-211.89,-126.524,-4.512,0.7811,100730.96
-0.4946,0.2207,-0.0278,133.354,-52.012,20.122,0.5423,100730.78
-0.5664,0.0811,0.5874,134.878,18.232,47.378,0.82,100731.15
0.5269,0.4521,0.1255,47.927,21.341,-88.232,0.7055,100731.41
0.6074,0.3877,-0.4058,5.427,0.854,-108.11,0.827,100731.63
2.3623,1.6484,-0.9873,266.524,81.951,-266.402,3.0451,100731.27
1.7622,1.355,-1.3369,12.378,130.854,-17.805,2.594,100731.4
1.6519,-0.4097,-0.4473,92.866,134.634,-102.866,1.7597,100731.36
0.7739,-0.5898,0.1182,186.829,-9.512,-57.988,0.9802,100731.45
-0.1104,-0.2139,-0.4102,-128.415,-57.134,95.61,0.4755,100732.52
0.5317,-0.6196,0.8994,194.756,-158.78,-153.11,1.2148,100733.06
1.21,0.3071,-0.0776,-81.402,-53.72,69.207,1.2507,100732.61
1.3374,0.5332,-0.1548,-140.061,-86.159,128.72,1.4481,100732.88
1.9619,0.999,-0.9038,-311.646,67.744,188.659,2.3799,100732.2
1.6606,0.9619,-0.9268,-117.622,-11.28,119.268,2.1312,100732.34
0.3862,0.8916,-1.0024,-44.207,-43.659,135.122,1.3961,100732.19
-0.3506,0.8359,-0.4268,-88.476,-15.183,66.402,1.0019,100732.57
-0.8364,0.1743,-0.3447,64.878,-25.671,-15.793,0.9213,100732.35
0.2817,0.3208,0.6396,113.72,-68.049,-92.256,0.7691,100732.35
0.4253,0.7251,-0.5571,52.988,-36.402,-87.683,1.0085,100731.95
1.5444,0.9048,-0.6201,75.732,68.537,-173.598,1.8943,100731.64
1.8604,1.5415,-0.8193,217.805,80.549,-204.878,2.5512,100730.69
1.0308,0.5244,-1.2144,-100.488,147.988,-7.012,1.6769,100730.83
1.5059,0.1465,-0.7808,87.805,90.915,-128.11,1.7025,100730.43
0.2935,-0.4917,0.23,227.012,27.683,-10.793,0.6171,100730.77
0.0439,-0.8389,0.5322,34.268,-50.244,-10.244,0.9944,100731.38
0.6094,-0.4092,0.3682,-57.378,-15.915,-21.037,0.8212,100731.93
1.4019,0.189,-0.1064,-132.5,-9.878,91.585,1.4185,100732.4
1.6763,0.5952,-0.3726,-159.207,-100.976,103.476,1.8174,100731.24
1.7915,0.9839,-0.8091,-182.256,25.671,93.902,2.1982,100731.23
1.3755,0.8628,-0.8755,-127.927,15.305,133.841,1.8447,100731.73
0.2856,1.1514,-0.3765,-128.841,-16.22,77.256,1.2446,100731.62
-0.1284,1.1172,-0.6514,-54.634,-33.598,27.744,1.2996,100731.16
-0.0977,0.6128,-0.2432,56.463,-41.951,34.451,0.6665,100731.18
-0.2266,0.4912,0.2651,63.902,-20.976,-4.146,0.6024,100730.71
-0.0293,0.2734,0.249,102.744,72.5,-59.39,0.371,100731.47
2.2822,1.29,-0.2134,134.451,111.89,-177.195,2.6303,100731.3
2.7275,1.3872,-1.7969,15.915,119.39,-24.695,3.5486,100730.43
1.5693,-0.1914,-0.9995,209.573,92.012,-36.707,1.8704,100730.66
0.3301,-0.7632,0.7358,222.073,27.927,9.695,1.1103,100730.21
-0.2905,-0.7671,0.4043,74.207,-82.866,47.805,0.9145,100730.61
1.4067,0.4492,0.4092,-179.39,48.598,53.659,1.5324,100731.46
1.4526,0.5913,-0.6045,-240.366,-113.598,112.134,1.6808,100731.07
2.3696,0.4424,-0.7217,-191.951,18.049,73.598,2.5163,100731.52
2.019,0.626,-0.9976,-175.488,87.744,142.5,2.3374,100731.35
0.6343,0.5972,-0.1299,-204.39,-10.305,150.61,0.8808,100730.98
0.1265,0.9023,-0.019,-232.988,-89.939,27.683,0.9114,100729.84
-1.4165,0.7134,-0.0708,2.866,-167.439,-9.268,1.5876,100730.47
0.0493,0.6611,0.2949,85.61,29.085,-131.037,0.7256,100730.45
0.4189,0.3862,0.1953,223.232,84.695,-169.695,0.6024,100730.19
2.5259,0.8999,0.5034,155.183,126.098,-270.366,2.7282,100731.11
2.3682,1.9404,-1.1938,-94.939,172.012,41.646,3.2861,100731.66
1.5396,0.2896,-0.519,212.683,81.829,-99.451,1.6503,100730.97
1.1348,-0.3022,-0.0928,230.244,41.646,-71.037,1.178,100730.7
0.4458,-0.728,0.4854,127.073,-68.171,-6.159,0.982,100729.87
0.1812,-0.623,0.3364,16.28,-256.89,-55.061,0.7309,100731.35
1.2637,0.0322,0.0947,-68.902,-75.122,46.22,1.2676,100731.23
1.5635,0.7002,0.2534,-130.183,-4.573,180.549,1.7317,100731.77
2.0957,1.2554,-1.0166,-310.488,-72.012,193.476,2.646,100732.3
1.478,1.2197,-1.3188,-250.366,-36.341,240.244,2.3263,100732.19
-0.2036,0.6191,-0.1719,-127.561,-88.293,123.476,0.674,100731.88
-0.2954,0.4219,0.4556,11.098,-107.134,-52.988,0.6876,100731.89
-0.5718,0.6489,-0.0459,-85.61,42.317,96.768,0.8661,100731.78
0.0229,0.6528,0.0151,82.378,49.207,-55.671,0.6534,100732.05
0.7832,0.3433,-0.0088,197.256,69.756,-196.89,0.8552,100731.52
2.3188,1.4434,-0.46,263.72,62.988,-220.488,2.7698,100731.44
1.5942,0.2075,-0.9473,3.354,1.524,-209.39,1.866,100731.19
1.1167,-0.3159,-0.2217,221.646,59.024,-41.159,1.1815,100732.1
0.2104,-0.8618,0.5288,116.707,11.402,60.061,1.0328,100732.66
0.3872,-0.3638,0.1421,-45.61,-66.585,52.622,0.55,100732.98
1.2231,0.2168,0.6172,-20.244,3.415,85.671,1.3871,100733.1
1.5952,0.832,-0.5474,-274.451,12.012,188.72,1.8806,100733.55
2.6812,1.2856,-0.9497,-209.878,-39.817,60.732,3.1214,100734.87
0.9409,1.2993,-1.6768,-117.012,-88.78,114.878,2.3206,100734.14
0.1743,0.5317,-0.3037,-169.024,-101.098,102.988,0.6367,100733.96
-0.3926,0.2505,0.2324,-48.841,-103.171,32.256,0.5205,100733.84
-0.9175,0.3677,0.4707,88.232,-47.622,-15.122,1.0948,100733.98
0.1587,0.6147,0.2178,113.841,58.476,-122.012,0.6712,100734.59
0.3892,0.0459,0.1035,146.829,62.073,-148.78,0.4053,100735.29
1.7739,1.0698,-0.4082,229.695,55.854,-266.28,2.1114,100735.1
2.7515,2.2832,-1.8428,-135.915,187.866,-5.732,4.0224,100735.44
1.5049,-0.0518,-0.9438,128.476,27.927,-112.317,1.7771,100734.83
0.8652,-0.4941,-0.2729,284.451,56.951,-67.5,1.0331,100735.09
-0.167,-0.4839,0.2134,-32.073,38.354,138.598,0.5546,100735.05
0.4873,-0.6025,0.4761,-28.354,-79.512,-13.659,0.9095,100734.54
1.5015,0.1079,1.0908,-24.634,18.963,37.195,1.859,100735.52
0.9912,0.7847,-0.2832,-290.427,-123.049,184.634,1.2955,100735.51
1.4321,0.7412,-0.8623,-271.28,-30.671,154.939,1.8286,100736.37
2.5811,1.1099,-1.8506,-290.976,68.049,110.305,3.3643,100735.77
0.895,0.9727,-0.5142,-146.28,-145.732,27.256,1.4183,100734.85
-0.5586,0.9531,0.374,85.61,-201.707,31.829,1.1663,100734.02
-0.9629,0.5625,0.3164,32.5,-21.89,64.512,1.1592,100733.16
0.0996,0.355,0.1821,46.829,20.671,-74.512,0.4112,100732.4
0.1895,0.231,-0.5171,55.122,37.561,-83.963,0.5972,100731.84
1.5981,0.9263,-0.3291,236.463,105.488,-251.524,1.8763,100732.53
2.3789,1.9688,-0.8389,79.634,187.805,-161.768,3.1998,100732.53
2.0269,0.4604,-1.1558,-57.927,154.939,-15.732,2.3782,100732.92
1.0898,-0.5503,-0.3643,261.646,-55.305,-130.549,1.2741,100732.48
0.0762,-0.5601,0.437,166.89,-35.549,0.732,0.7145,100732.62
-0.0952,-0.6953,0.29,52.5,-86.646,60.0,0.7594,100732.73
1.1001,-0.1743,0.6567,-63.72,-3.171,73.659,1.293,100732.94
0.6738,0.3848,0.1675,-117.378,-129.817,91.646,0.7938,100733.11
2.0347,1.2803,-1.4033,-351.28,6.402,135.854,2.7836,100732.13
2.3545,1.2017,-1.6582,-145.793,62.805,125.244,3.1205,100731.99
0.834,0.8784,-0.9556,4.146,-9.878,143.415,1.5428,100732.28
-0.4321,0.5928,0.0488,-74.573,-74.695,60.549,0.7352,100730.51
-0.7134,0.4316,-0.354,19.207,-58.293,34.329,0.9058,100730.16
0.0669,0.4668,0.0928,69.024,1.28,-76.951,0.4806,100729.8
0.3833,0.5903,-0.1387,243.598,20.549,-161.646,0.7174,100729.9
1.0181,0.6128,-0.4985,180.183,41.951,-133.963,1.2886,100730.82
2.4204,1.3882,-0.5601,202.012,162.805,-199.146,2.8459,100729.8
1.8838,0.5444,-0.6323,27.5,45.61,-106.22,2.0603,100730.88
0.9434,-0.7261,-0.4727,33.049,20.183,-52.317,1.2808,100731.57
0.5366,-0.4414,-0.0635,41.22,110.976,-20.793,0.6977,100731.72
0.1548,-0.2944,0.1099,10.244,-62.256,12.622,0.3503,100733.44
0.2681,-0.5552,0.1895,-87.256,-20.244,101.524,0.645,100734.12
1.1138,0.0815,0.6792,-83.049,46.463,100.244,1.3071,100733.64
1.4756,0.7788,-0.8032,-92.134,-108.354,35.122,1.8518,100733.39
2.6484,0.7432,-1.23,-199.878,44.512,67.256,3.0132,100733.96
1.4839,0.647,-1.1641,-117.012,19.573,148.232,1.9939,100733.02
0.416,0.7915,-0.3032,-132.988,-109.695,62.683,0.9442,100731.94
-1.0547,0.7305,-0.126,-119.085,-137.5,76.585,1.2891,100729.29
-0.8994,0.7168,-0.2002,12.5,-7.012,-19.451,1.1674,100728.16
0.7363,0.7393,-0.1138,133.902,93.354,-132.744,1.0496,100727.93
1.4619,0.8057,0.105,201.768,108.659,-116.098,1.6725,100727.27
2.1572,1.3403,0.0205,201.341,111.22,-166.768,2.5398,100727.04
1.377,0.4546,-1.1021,64.146,43.659,-109.817,1.8213,100728.31
1.8291,0.0356,-1.1689,91.829,70.0,-98.11,2.171,100729.55
0.9458,-0.5737,0.7632,164.451,87.012,12.866,1.3439,100730.83
-0.4941,-0.7124,0.2705,3.293,-80.793,87.683,0.9082,100731.66
-0.0054,-0.3252,0.1621,-79.939,-42.378,41.646,0.3634,100731.8
1.8018,0.3486,0.5684,-7.012,43.049,-6.037,1.9212,100731.4
1.0474,0.4043,-0.5161,-176.585,-102.683,131.22,1.2356,100731.46
2.5,0.4951,-0.6592,-254.146,17.866,28.11,2.6324,100731.64
1.769,1.229,-0.978,-137.439,4.634,36.707,2.3657,100731.17
0.0415,0.8906,-0.4585,-159.817,-77.683,65.61,1.0026,100729.81
-0.269,0.4824,-0.3525,-96.646,-72.317,51.707,0.6553,100728.57
-0.7324,0.3423,-0.3125,10.427,-13.171,52.012,0.8668,100728.25
0.3696,0.6094,0.2329,119.634,22.317,-113.415,0.7498,100727.64
0.4033,0.5815,-0.1055,152.134,10.976,-92.073,0.7155,100726.44
1.3887,0.9238,0.0532,85.0,93.171,-149.756,1.6687,100727.75
2.4917,1.6733,-0.3286,39.207,107.866,-149.939,3.0194,100729.12
1.1162,0.4907,-1.335,120.183,70.183,-46.098,1.808,100729.55
1.5454,0.165,-0.4136,156.646,125.122,-54.451,1.6083,100729.98
0.4683,-0.7217,0.6812,122.195,35.61,33.72,1.0973,100731.55
-0.3428,-0.7407,-0.2769,-57.744,-83.963,87.683,0.8619,100732.21
1.103,-0.0469,0.5337,-4.451,-19.024,8.049,1.2263,100732.72
1.3174,0.4312,0.1079,-78.78,-155.488,45.793,1.3903,100733.59
2.2495,0.7432,-0.6943,-155.671,-145.854,81.707,2.4687,100732.52
2.041,0.4985,-0.3452,-92.805,-36.524,163.72,2.1292,100733.21
0.228,1.2368,-1.4409,-361.098,-99.39,340.61,1.9126,100731.87
0.0557,0.5742,0.1592,3.354,-179.573,-60.549,0.5985,100730.73
-0.5854,0.5928,-0.25,-79.512,-63.476,92.683,0.8698,100730.25
-0.2969,0.6865,0.0762,27.927,-44.268,-12.5,0.7518,100729.28
-0.1816,0.4678,-0.0327,123.537,15.244,-110.183,0.5029,100728.32
1.8633,1.1582,-0.7041,206.037,97.195,-283.902,2.3041,100729.57
1.6792,1.6138,-0.9575,130.061,131.341,-134.512,2.5181,100729.03
1.2603,0.2109,-1.4272,-68.171,172.561,-67.378,1.9157,100728.98
1.5791,0.0352,-0.7202,185.915,71.463,-157.988,1.7359,100729.34
0.5557,-0.7822,0.521,226.22,9.085,-49.268,1.0918,100730.71
0.6304,-0.5693,0.0659,-46.098,-54.085,19.146,0.852,100730.86
0.3247,-0.4819,0.3867,-34.451,-72.988,82.683,0.698,100731.5
1.1509,0.2148,0.481,-47.012,-53.171,87.195,1.2657,100731.72
1.5361,0.8921,-0.9028,-130.427,-38.598,144.756,1.9926,100731.88
2.0708,1.3481,-1.3779,-245.061,48.72,189.024,2.8292,100730.51
0.7446,0.9478,-1.8818,-187.927,-0.305,220.488,2.2347,100729.73
0.2197,0.3945,-0.4956,-138.11,-51.646,91.951,0.6705,100728.53
-0.1685,0.4629,-0.3359,-56.768,-63.598,43.171,0.5962,100728.25
-0.6689,0.5024,0.0459,42.134,-38.78,-11.402,0.8379,100728.77
-0.0469,0.5361,0.3301,139.939,23.902,-142.073,0.6313,100728.32
0.9253,0.5352,-0.0415,139.146,39.512,-164.512,1.0697,100729.46
1.9849,1.2583,-0.6411,142.256,119.451,-185.488,2.436,100729.56
1.5903,0.2422,-1.0825,-34.756,154.634,-53.963,1.939,100729.27
1.2686,0.1841,-1.7744,104.817,120.549,-47.317,2.189,100730.3
1.0547,0.0532,0.1899,171.463,27.439,-112.683,1.073,100731.07
0.2173,-0.4854,0.8672,25.183,7.744,-26.829,1.0172,100731.39
0.3677,-0.3628,0.0566,-46.707,-57.744,-22.988,0.5196,100732.15
0.877,0.2603,0.2729,-40.915,22.256,23.598,0.9546,100733.34
1.7754,0.4575,-0.4229,-146.037,-39.024,24.146,1.8815,100734.09
2.8159,1.0962,-1.2744,-181.707,-5.488,35.122,3.2795,100733.19
1.3921,1.168,-1.0952,-130.0,-42.195,159.817,2.1217,100732.85
-0.2734,0.7573,-0.3232,-189.756,-89.817,157.073,0.8676,100733.37
0.1045,0.5254,-0.1216,-78.476,-68.78,29.146,0.5493,100733.27
-1.0762,0.1465,-0.1846,72.744,-57.5,67.988,1.1017,100732.68
-0.0542,0.5767,0.1206,107.012,6.037,-110.976,0.5916,100733.49
1.1328,0.7559,-0.3965,179.634,18.963,-214.878,1.4184,100732.99
1.4248,0.897,-0.3452,185.061,71.463,-164.573,1.7187,100733.47
2.1191,1.7554,-0.6865,95.305,163.415,-118.598,2.8361,100733.1
1.3643,0.2607,-1.1704,2.866,85.244,-73.72,1.8163,100732.43
1.3022,-0.2329,-0.6538,105.549,6.829,-84.939,1.4757,100732.2
0.457,-0.2749,0.4268,110.183,-17.073,43.598,0.6831,100732.52
-0.3315,-0.6226,0.603,-15.915,-121.89,67.012,0.928,100733.02
0.4194,-0.2524,0.3174,-62.683,-60.915,56.098,0.5834,100732.39
1.3481,0.3501,-0.1436,-44.939,-34.939,78.171,1.4002,100732.18
1.4561,0.8999,-0.6592,-157.988,-66.28,83.415,1.8342,100732.38
2.6787,1.5581,-1.4482,-235.244,12.195,24.756,3.4206,100731.79
0.7095,0.877,-1.2529,-85.549,33.293,167.927,1.6859,100731.34
-0.2393,0.7134,-0.0776,-92.439,-67.439,144.817,0.7564,100730.77
-0.3013,0.3672,-0.2734,-43.72,-65.366,57.195,0.548,100730.45
-0.4214,0.3198,-0.0396,48.598,-15.915,11.707,0.5305,100729.34
0.0635,0.5864,0.2383,78.049,-45.244,-112.195,0.6362,100729.89
0.6265,0.5039,-0.2793,90.244,-8.659,-156.707,0.8511,100730.3
1.6367,1.4731,-0.6255,127.134,99.512,-182.134,2.2892,100729.72
1.8984,1.7422,-1.5352,36.951,146.524,-101.646,2.9993,100728.83
1.3477,0.0586,-1.2373,90.549,75.488,-114.085,1.8304,100728.76
0.9893,-0.3101,0.2383,174.512,36.402,-75.671,1.0637,100729.2
0.5703,-0.5205,0.0781,27.256,-13.415,11.402,0.7761,100730.39
0.2109,-0.5122,0.1387,-19.451,-77.622,40.244,0.571,100730.3
0.5713,0.1187,0.4692,-24.39,-7.317,95.427,0.7488,100731.11
1.0527,0.335,-0.1602,-125.976,-65.427,108.598,1.1163,100732.36
2.0522,0.8501,-1.0596,-147.683,-83.049,37.988,2.4611,100731.3
1.5771,1.0742,-1.4941,-100.305,14.512,127.988,2.4236,100731.38
0.4263,0.8584,-1.1475,-83.598,7.866,143.72,1.4951,100730.83
0.3066,0.6758,-0.2495,-136.463,-99.146,66.829,0.7829,100729.17
-0.5459,0.4175,-0.1499,-18.72,-28.171,99.939,0.7034,100727.68
-0.7354,0.3062,0.0039,30.244,-12.195,-16.098,0.7965,100727.05
0.3169,0.6465,-0.1597,88.963,11.037,-159.817,0.7375,100727.45
0.834,0.708,-0.2827,134.024,94.329,-169.512,1.1299,100727.76
2.2964,1.8149,-1.0483,165.732,147.012,-186.402,3.1091,100728.23
1.5474,0.73,-0.8008,28.476,124.268,-61.951,1.889,100729.33
1.3335,-0.0576,-0.7783,35.854,84.695,-82.683,1.5451,100729.42
1.0054,-0.1611,-0.2832,134.085,31.951,-24.024,1.0569,100729.98
0.5713,-0.4482,0.0239,39.817,-53.049,36.22,0.7265,100730.02
0.1519,-0.5312,0.7974,17.5,-107.439,77.012,0.9701,100731.29
1.1079,0.1401,0.6016,-90.488,-49.39,110.915,1.2685,100731.12
0.8081,0.5454,-0.5024,-128.171,-148.049,129.878,1.0968,100730.0
2.3252,0.9883,-1.0894,-249.634,-27.927,84.268,2.7514,100728.92
1.6602,1.5288,-1.6396,-258.78,7.378,104.939,2.7896,100729.12
0.0259,1.168,-0.7822,-64.695,-60.793,62.622,1.406,100727.77
-0.3213,0.7905,-0.3291,-78.171,-96.098,83.354,0.9146,100725.77
-0.7617,0.0493,0.1133,-3.537,-54.207,26.402,0.7717,100725.39
-0.2153,0.2188,0.2363,60.732,10.671,-86.159,0.3874,100726.09
0.2593,0.3652,0.0732,121.707,84.817,-104.512,0.4539,100725.49
0.5005,0.2993,0.0386,160.305,30.854,-128.232,0.5844,100726.89
1.2036,1.7056,-1.1992,39.512,77.012,-122.195,2.4074,100727.1
1.8296,1.7446,-1.6489,14.024,159.329,-128.415,3.0183,100727.37
2.1304,0.4907,-1.0474,89.817,117.317,-75.122,2.4241,100727.21
0.9229,-0.1997,0.0205,175.244,-9.268,-72.317,0.9444,100727.21
0.335,-0.4873,-0.1636,82.988,-2.195,-16.341,0.6135,100727.84
0.2368,-0.7612,0.644,-8.293,-45.976,32.683,1.0249,100728.2
0.5649,0.0967,0.209,-104.878,-39.939,107.195,0.6101,100728.81
1.0786,0.4468,-0.0654,-108.415,-47.5,82.744,1.1693,100729.04
1.9624,0.9673,-0.8652,-151.098,-2.012,80.183,2.3527,100728.34
1.4106,1.2104,-1.769,-125.793,59.817,122.439,2.5661,100729.67
0.7749,0.8389,-1.1968,-73.171,-85.0,65.854,1.6542,100729.21
0.125,0.7178,-0.1084,-74.146,-182.439,23.78,0.7366,100728.73
-0.8491,0.501,-0.2471,8.049,-62.683,42.561,1.0164,100728.23
-0.4951,0.3403,0.5381,162.317,48.78,-27.744,0.8065,100727.38
0.6411,0.7671,-0.2988,69.817,20.915,-157.012,1.0434,100726.86
1.2974,0.8535,-0.5332,116.341,140.0,-168.841,1.6419,100726.97
2.1929,1.5088,-0.479,197.622,174.939,-152.744,2.7045,100726.94
1.0078,0.3184,-1.0259,59.573,94.939,-34.878,1.4729,100726.4
1.1021,-0.1343,-0.8018,19.939,67.744,-39.207,1.3694,100726.99
0.915,-0.2622,-0.2798,39.756,88.72,32.5,0.9921,100727.55
0.5342,-0.3901,0.186,26.707,33.171,44.329,0.6871,100727.98
-0.084,-0.4536,0.5122,-3.598,-98.78,70.488,0.6893,100727.91
0.3149,-0.2583,0.6328,-57.073,-9.268,120.122,0.7526,100729.61
1.1245,0.4121,0.3989,-94.146,26.098,89.085,1.2623,100730.49
3.3208,1.2896,-1.2261,-342.988,62.012,-7.988,3.7675,100730.81
1.8247,1.3774,-1.8604,-240.122,-61.463,43.171,2.9475,100729.92
0.2827,0.811,-0.0713,-60.122,-108.537,101.22,0.8619,100730.88
-0.4209,0.3774,-0.1777,-67.012,-102.134,70.183,0.5926,100729.62
-0.5093,0.3687,-0.353,62.683,-38.171,20.549,0.721,100730.15
0.042,0.2231,0.4321,100.793,25.183,-40.488,0.4882,100730.79
0.8281,0.7451,-0.4897,77.805,19.878,-118.78,1.2169,100731.29
2.0171,1.3481,-0.7314,150.122,167.805,-81.768,2.534,100730.56
1.7065,0.9062,-0.6221,125.671,109.085,-55.793,2.0299,100730.49
1.2852,0.3711,-1.3691,-32.622,-4.085,-55.366,1.9141,100730.33
1.3818,0.2334,-0.2373,81.037,39.878,-27.012,1.4214,100729.33
0.7266,-0.5137,0.4331,59.512,15.915,57.012,0.9896,100728.09
-0.2954,-0.8555,0.5864,74.024,-52.5,56.951,1.0784,100728.51
0.0752,-0.5361,0.9575,56.707,-46.829,7.683,1.1,100728.22
1.5674,0.5913,-0.0889,-210.671,-35.183,-6.829,1.6776,100727.74
1.8618,0.6958,-0.5752,-194.878,-64.817,31.585,2.0691,100728.01
2.1421,1.2402,-1.1724,-258.354,24.512,78.841,2.7388,100727.84
0.603,0.8843,-1.0532,-78.963,-31.463,53.232,1.5016,100727.84
0.0366,0.4941,-0.2383,-113.78,-68.72,56.341,0.5498,100728.07
0.0078,0.5337,-0.1807,-75.122,-44.695,61.402,0.5635,100727.65
-0.542,0.3047,-0.1108,43.11,13.354,55.061,0.6316,100727.07
0.103,0.1108,0.4473,185.793,-28.232,-78.902,0.4722,100727.75
0.5283,0.8066,-0.5645,179.634,6.28,-184.634,1.1173,100726.91
2.6392,1.9116,-0.6768,-29.512,147.5,-161.829,3.3283,100726.41
2.3135,0.9551,-0.3232,158.049,175.671,-47.622,2.5237,100726.41
0.9702,0.1147,-1.1719,2.378,56.768,43.841,1.5257,100726.77
1.1694,0.0869,0.0591,157.256,27.5,-55.366,1.1741,100726.17
0.1533,-0.6201,0.5645,116.829,-40.854,30.549,0.8524,100726.09
-0.3149,-0.9175,0.6035,-3.476,-153.72,11.098,1.1424,100726.04
1.0566,0.3071,0.2124,-55.427,-115.793,-60.671,1.1207,100726.73
0.6509,0.4561,-0.3457,-97.134,-143.293,38.841,0.8667,100727.27
1.8569,0.5312,-0.8418,-259.451,-17.073,92.012,2.1069,100726.94
2.2104,1.2695,-0.9795,-147.927,75.671,125.061,2.7308,100726.43
0.165,1.0186,-0.855,-138.72,-10.244,140.366,1.34,100726.05
-0.2485,0.7021,-0.2046,-107.561,-68.537,28.902,0.7724,100725.74
-0.6729,0.4277,-0.1914,-7.5,-41.159,2.988,0.82,100725.52
-0.0308,0.4575,0.0068,82.317,29.634,-45.915,0.4586,100725.48
1.0332,0.9268,-0.3477,139.512,42.073,-143.049,1.4308,100726.2
1.8706,1.2881,-0.3916,222.439,154.573,-120.061,2.3047,100726.73
1.6631,1.4717,-0.3589,230.122,113.293,-111.22,2.2496,100727.4
1.082,0.3579,-0.5518,14.146,52.256,-60.915,1.2662,100727.16
0.9727,0.2446,-0.8359,45.61,34.573,-44.451,1.3056,100727.59
1.0327,0.0078,-0.0059,163.476,104.024,-10.61,1.0328,100727.29
0.6436,-0.6177,0.1953,64.085,86.646,80.366,0.9131,100727.56
0.0308,-0.8662,0.7827,76.037,-156.646,31.829,1.1679,100727.64
0.9541,0.2349,0.6045,-54.817,-123.902,-15.0,1.1536,100728.08
1.1528,0.5039,0.1787,-216.22,-90.854,110.732,1.2708,100728.51
2.2046,1.2803,-0.8218,-245.061,-51.524,157.195,2.6786,100729.35
1.4644,1.2583,-1.5742,-156.829,38.232,58.232,2.4911,100729.37
0.5674,0.9639,-1.2139,-41.402,33.72,62.683,1.6506,100729.13
0.2344,0.5312,-0.1426,-100.732,-102.866,10.61,0.5979,100729.2
-0.6396,0.1636,-0.251,-34.268,-101.463,22.805,0.7063,100729.63
-0.6831,0.104,0.3418,81.402,-10.549,3.963,0.7709,100729.56
0.4385,0.6978,-0.1519,116.524,59.024,-118.841,0.838,100729.41
0.8608,0.6045,-0.1235,132.561,51.463,-141.28,1.0591,100729.41
1.8296,1.522,-0.9819,128.354,84.268,-114.756,2.5745,100729.41
1.6396,1.2236,-0.8047,114.634,151.037,-49.878,2.1985,100729.67
1.5835,0.0366,-1.0283,37.622,51.28,-63.232,1.8885,100729.13
1.2544,0.2646,-0.8657,0.732,79.512,17.927,1.5469,100728.72
0.7456,-0.438,0.4653,93.598,11.951,9.024,0.982,100729.02
-0.167,-0.8423,0.7739,39.817,-160.488,19.146,1.156,100728.75
0.249,-0.1094,0.2993,20.61,-95.488,26.951,0.4044,100728.8
1.2148,0.4131,0.1069,-61.28,23.049,89.634,1.2876,100729.09
1.3989,0.4224,-0.311,-183.537,-128.902,69.329,1.494,100729.93
2.4458,1.1489,-1.6909,-330.732,24.085,145.732,3.1877,100730.19
1.0474,1.0181,-1.0225,-67.866,-12.988,120.427,1.7829,100729.65
0.0488,0.5386,-0.4336,-48.232,-75.061,55.915,0.6931,100728.73
-0.1216,0.5298,-0.1226,-99.146,-109.573,32.378,0.5572,100728.55
-0.6577,0.3921,-0.1777,-4.329,-63.78,6.89,0.7861,100728.53
-0.1001,0.4028,0.103,79.146,-14.573,-65.488,0.4277,100728.53
1.1001,0.7358,-0.584,102.012,13.659,-139.695,1.4466,100728.38
1.6216,1.3691,-0.9048,149.268,94.024,-127.378,2.3071,100727.52
1.0122,0.9258,-0.5996,101.098,128.598,-124.573,1.4971,100726.88
1.5356,0.5298,-1.2983,-88.171,140.0,-97.256,2.0796,100727.04
1.1279,0.1045,-0.5674,84.573,82.683,-42.012,1.2669,100727.27
0.5454,-0.3809,0.2104,154.024,63.354,-5.488,0.6977,100728.08
0.2354,-0.4966,0.062,54.695,-51.159,-4.39,0.553,100727.95
0.231,-0.251,0.4019,15.305,-80.915,57.073,0.5271,100728.45
0.9385,0.188,0.5254,-79.634,12.439,108.354,1.0918,100728.84
1.4473,0.6074,-0.377,-199.878,-157.256,22.439,1.6142,100728.88
2.1636,1.3198,-1.585,-223.049,-105.854,49.146,2.9892,100728.91
0.8599,1.2192,-1.3125,-58.354,1.951,147.988,1.9871,100728.32
-0.0366,0.7778,-0.5342,-67.439,28.354,123.293,0.9443,100728.62
0.0605,0.7139,-0.7612,-104.146,25.915,62.988,1.0453,100726.85
-0.1519,0.3711,-0.354,31.646,91.707,80.976,0.5349,100726.28
-0.0698,-0.0542,0.5361,116.341,-14.573,-11.707,0.5434,100726.2
0.4331,0.373,-0.0708,67.195,-148.354,-159.817,0.576,100726.41
1.2349,1.1924,-1.2046,81.098,-12.805,-179.39,2.0971,100726.08
2.0288,1.8604,-0.9263,116.341,146.28,-96.098,2.9043,100725.32
0.9448,0.4819,-0.4683,58.232,150.671,-65.183,1.1594,100725.88
0.9287,-0.2432,-0.7441,-11.646,86.28,-39.39,1.2147,100726.05
1.3281,0.1099,-0.3789,86.159,78.049,-64.39,1.3855,100725.95
0.7593,-0.3228,-0.0439,58.476,40.488,45.305,0.8262,100726.36
-0.1284,-0.6743,0.7036,80.915,-130.61,69.39,0.983,100727.02
0.543,0.0684,0.7354,-43.415,-54.207,73.293,0.9166,100727.42
1.2881,0.21,0.2407,-244.207,-42.988,122.317,1.3271,100726.84
2.1973,0.4639,-0.9194,-186.402,-77.744,168.598,2.4266,100728.12
1.6943,0.9214,-1.3701,-63.049,31.585,78.537,2.3658,100728.0
0.3799,0.748,-0.8623,-76.585,78.902,100.305,1.2031,100728.14
0.1079,0.4922,-0.2886,-108.476,16.037,27.805,0.5807,100728.24
-0.0127,0.5093,-0.5171,-64.146,-21.402,-36.646,0.7259,100727.45
-0.314,0.4443,-0.2129,59.512,-41.524,-27.134,0.5842,100727.48
0.8188,0.9136,-0.5371,108.72,-55.427,-146.89,1.3393,100728.25
1.6562,1.0894,-0.7759,173.11,29.024,-138.537,2.1288,100727.97
1.6279,1.2046,-0.4043,183.72,163.476,-55.0,2.0651,100727.12
1.416,0.5327,-0.2124,112.622,108.476,-71.585,1.5277,100727.48
0.6201,-0.334,0.1782,-0.915,-2.622,24.817,0.7265,100728.52
-0.0635,-0.6484,0.2817,30.183,-126.037,40.427,0.7098,100730.02
1.0864,0.2002,0.3159,-44.39,-28.049,36.951,1.149,100730.16
1.2104,0.6206,-0.3887,-108.841,-82.012,59.39,1.4147,100730.15
1.9341,0.666,-0.7935,-170.732,-62.561,123.232,2.194,100729.02
1.2642,0.7202,-0.6738,-154.024,6.829,76.585,1.6034,100729.9
0.5381,0.9399,-1.0522,-90.732,6.829,19.024,1.51,100729.95
0.0332,0.856,-0.8213,-43.963,4.634,27.378,1.1867,100728.98
-0.5908,0.3862,-0.4785,41.037,4.39,20.244,0.8528,100728.3
-0.1694,0.5342,0.0103,120.305,-58.171,-93.78,0.5605,100728.5
0.8623,0.6572,-0.1406,152.866,-20.793,-134.024,1.0933,100728.9
1.4946,0.5596,-0.1445,185.915,106.768,-109.573,1.6025,100728.33
1.6055,0.9512,-0.4253,156.22,58.354,-125.488,1.9139,100728.54
0.9614,0.3848,-0.8413,-23.476,107.988,-73.415,1.3342,100728.06
0.9331,0.2622,-0.6157,-53.171,96.402,-80.793,1.1483,100727.97
1.0806,0.0547,-0.0732,-4.451,13.902,-79.268,1.0844,100728.39
0.6206,-0.1367,-0.4248,-18.293,37.317,69.939,0.7644,100728.7
0.04,-0.3647,0.0879,51.768,-118.049,115.183,0.3773,100729.16
1.3428,0.1235,0.5869,38.963,35.305,74.756,1.4706,100729.54
1.4331,0.3032,0.3813,-152.195,-88.598,62.256,1.5137,100729.07
2.5864,1.2183,-0.6992,-306.037,-151.524,9.756,2.9432,100728.59
2.5864,1.2183,-0.6992,-306.037,-151.524,9.756,2.9432,100728.73
1.083,1.6929,-1.6709,-330.0,26.341,205.976,2.6135,100727.73
-0.0894,0.4995,0.1318,-29.329,-13.232,55.183,0.5243,100727.41
-0.7134,0.1929,-0.3218,-45.793,-89.878,-1.646,0.806,100727.37
0.0088,0.4971,-0.002,102.683,-82.195,-126.524,0.4972,100728.19
0.5249,0.5024,-0.1655,139.512,1.768,-146.098,0.7452,100729.06
2.1699,1.3345,-0.0464,143.171,120.854,-169.512,2.5478,100728.84
2.7847,2.3237,-1.1167,-124.512,153.902,19.512,3.7949,100728.69
0.8418,0.2764,-1.3398,15.427,1.098,46.646,1.6063,100727.7
1.082,0.0151,0.1885,286.22,-58.963,-145.854,1.0984,100727.34
0.6406,-0.3413,0.354,60.671,15.061,33.171,0.8076,100727.55
-0.6719,-0.9897,0.3667,34.085,-92.134,81.707,1.2512,100728.45
0.6948,0.022,0.3687,143.537,-17.622,-56.585,0.7869,100728.28
1.1704,0.2793,0.335,-111.402,25.976,88.902,1.249,100728.39
1.6797,0.5063,-0.6597,-217.805,-101.22,84.756,1.8743,100727.97
2.5308,1.3833,-1.2896,-261.646,36.22,112.134,3.1593,100728.03
0.5352,0.8354,-0.8296,-127.439,-43.902,121.28,1.2933,100727.96
-0.0308,0.4814,-0.2583,-94.634,-80.0,17.317,0.5472,100727.65
-0.0713,0.7026,-0.4365,-76.524,-47.622,22.256,0.8303,100727.16
-0.4136,0.4243,-0.0723,17.683,13.232,22.866,0.5969,100726.7
0.1738,0.5034,0.1611,87.866,-16.951,-99.756,0.5564,100726.84
0.6982,0.7163,-0.2686,110.976,23.537,-142.927,1.0357,100726.81
2.1626,1.9189,-0.7319,132.439,120.488,-178.659,2.9824,100726.82
1.793,1.1968,-0.3203,121.646,174.756,-75.854,2.1794,100726.3
1.0312,-0.1509,-0.644,19.268,99.878,-1.951,1.2252,100725.56
0.8184,-0.248,-0.4648,65.122,51.463,-5.244,0.9733,100725.88
0.6187,-0.168,0.1519,105.244,39.146,3.415,0.6588,100726.84
-0.2437,-0.3813,0.2837,13.72,-102.134,22.683,0.5341,100727.45
0.6479,-0.0293,0.3555,-22.988,-86.829,32.439,0.7396,100727.3
1.2104,0.3896,0.1543,-94.878,-49.024,89.878,1.2809,100727.05
2.2456,0.9258,-1.165,-259.512,11.524,77.439,2.6939,100727.38
2.4878,1.4473,-1.0669,-126.22,16.829,41.037,3.0695,100727.48
0.0708,0.6978,-0.5112,-80.976,-50.244,111.585,0.8679,100727.69
-0.063,0.3926,0.064,-61.098,-85.915,16.951,0.4027,100727.34
-0.1782,0.2036,-0.248,-55.244,-7.683,56.22,0.3671,100728.22
-0.7769,0.144,-0.0532,47.134,10.0,32.561,0.7919,100727.86
0.4414,0.6274,-0.1514,56.768,3.659,-148.293,0.7819,100728.48
0.7139,0.6763,-0.1851,87.195,-5.854,-154.939,1.0006,100727.92
1.8579,1.7568,-0.7056,12.561,133.11,-33.232,2.6526,100727.53
1.7358,1.6445,-0.3271,136.037,111.585,-126.951,2.4134,100727.85
1.2041,0.5122,-1.0532,60.183,96.829,-65.793,1.6797,100727.85
0.9722,0.0342,0.167,207.927,126.463,-83.659,0.987,100728.6
0.7642,-0.584,0.6724,143.476,81.585,-8.841,1.1735,100729.66
0.2349,-0.688,0.1729,29.878,-4.817,88.11,0.7472,100730.42
0.1943,0.145,0.1382,3.049,-27.5,77.805,0.2791,100729.63
1.4648,0.3179,0.4277,-143.049,-37.866,32.744,1.5588,100728.3
2.0796,0.9258,-0.1973,-194.024,-139.573,25.549,2.2849,100729.43
2.29,1.5527,-1.3896,-294.329,-105.122,98.11,3.0962,100729.91
0.7686,0.9487,-0.6997,-89.329,-66.037,121.341,1.4073,100729.39
0.2061,0.6514,-0.0337,-75.122,-52.622,48.598,0.684,100728.88
-0.041,0.6831,-0.4775,-119.695,-15.732,52.988,0.8345,100728.25
-0.6738,0.313,-0.3774,30.122,82.744,83.476,0.8333,100728.52
-0.4478,0.0776,0.6245,227.622,85.671,-40.0,0.7724,100728.48
0.4878,0.7476,-0.4546,81.341,-48.78,-139.939,1.0017,100728.95
1.2329,0.8286,-0.105,109.512,42.622,-161.707,1.4892,100728.92
2.4751,2.1768,-0.6978,157.561,52.439,-229.085,3.3692,100728.91
2.0039,1.0103,0.0112,82.195,102.317,-103.963,2.2442,100729.26
1.001,0.02,-0.8501,-21.646,70.488,-15.549,1.3134,100729.53
0.8027,0.0439,-0.7759,49.756,48.537,26.524,1.1173,100729.86
-0.207,-0.5352,0.3628,89.451,-11.768,95.732,0.6789,100730.34
0.1724,-0.2891,0.7163,-11.707,-77.195,98.049,0.7914,100730.35
0.6484,0.2559,-0.1245,-99.268,20.915,130.793,0.7081,100730.97
0.9863,0.1748,0.2412,-50.793,-122.622,62.439,1.0303,100730.81
2.4023,0.9302,-0.7969,-172.805,-143.841,8.354,2.6966,100730.46
2.0132,0.9185,-0.75,-174.146,-21.829,117.805,2.3364,100730.55
0.2617,1.0322,-0.7534,-270.732,-26.28,219.634,1.3045,100729.52
-0.0078,0.7012,-0.2729,-118.537,-102.073,-17.439,0.7525,100729.23
-0.0898,0.7925,-0.3535,26.646,20.732,7.561,0.8724,100729.16
-0.873,0.1318,0.0596,174.573,50.671,38.415,0.885,100728.6
0.2827,0.5132,0.3525,214.573,-57.073,-160.122,0.6838,100729.05
1.4741,1.4985,-1.3159,-12.744,22.378,-166.098,2.48,100728.5
2.6729,1.8936,-0.0146,281.098,107.927,-212.256,3.2757,100727.99
1.1221,0.4175,-0.1509,133.963,77.012,-84.085,1.2067,100728.34
1.3574,0.0005,-1.1504,-107.927,37.378,-48.232,1.7793,100729.23
1.2163,0.2764,-0.5073,-1.463,91.402,-8.902,1.3465,100729.52
0.7612,-0.1152,-0.3032,26.28,48.72,36.341,0.8275,100729.0
-0.3521,-0.6982,0.5933,154.939,-100.061,83.72,0.9816,100728.84
-0.27,-0.1748,0.8428,50.915,-77.561,106.89,0.9021,100727.99
1.3618,0.4414,-0.3169,-167.561,11.707,86.037,1.4662,100728.59
1.5957,0.4595,-0.5977,-91.585,-159.268,72.012,1.7648,100728.42
2.4517,0.9453,-0.9883,-242.622,-24.573,100.183,2.8073,100729.92
1.7031,0.6172,-0.8999,-86.524,6.829,107.988,2.0227,100729.92
0.4692,1.0879,-0.6157,-179.085,-34.695,174.939,1.3352,100729.52
0.2236,1.0605,-0.4941,-95.427,-101.524,37.439,1.1912,100728.88
-1.3071,0.519,-0.3237,-16.524,-33.232,153.232,1.4432,100728.64
-0.6851,0.1719,0.4419,162.744,-29.268,-123.11,0.8331,100728.46
1.1323,0.5615,-0.3999,167.256,-14.085,-241.829,1.3257,100729.08
0.9458,0.7217,-0.4902,227.744,26.707,-179.939,1.2867,100729.41
2.5508,1.6348,-0.8242,144.329,61.159,-256.402,3.1398,100729.3
1.4917,0.9683,-0.667,-39.878,87.988,-81.28,1.8994,100729.59
1.2114,-0.2007,-0.5205,32.378,15.549,-80.366,1.3337,100729.55
0.6592,-0.3374,-0.4854,119.451,68.659,4.39,0.8854,100729.89
0.0664,-0.6968,-0.0776,31.037,83.537,96.341,0.7042,100730.79
0.1387,-0.3896,0.2305,-10.793,-111.402,35.366,0.4735,100731.71
0.4912,0.0693,0.1323,-27.012,-66.402,74.573,0.5134,100731.4
1.1895,0.0962,0.1836,-109.39,-71.28,108.354,1.2074,100731.41
1.7505,0.3984,-1.2344,-156.89,-70.915,147.439,2.1787,100731.8
2.166,1.2798,-1.9229,-332.195,14.329,84.878,3.1665,100730.35
0.3638,1.1758,-1.1948,-128.476,-14.39,105.793,1.7153,100730.27
0.1504,0.5034,-0.3208,-142.195,-77.317,85.549,0.6156,100729.57
-0.4238,0.3872,-0.0078,-12.317,-44.024,43.963,0.5741,100730.17
-0.7109,0.123,0.0439,90.671,-3.415,26.098,0.7228,100729.88
0.5298,0.4756,-0.0181,82.134,21.951,-130.366,0.7122,100730.04
1.1055,0.7905,-0.5488,182.012,19.939,-211.585,1.4657,100728.79
1.8071,1.6646,-0.998,28.232,123.537,-106.159,2.6519,100728.71
1.5835,0.8433,-0.6592,38.232,157.744,-76.28,1.9113,100728.41
1.064,0.1855,-1.104,-8.049,77.683,-43.354,1.5444,100728.92
0.8965,-0.1006,0.0566,152.866,50.183,-75.061,0.9039,100729.44
0.6704,-0.6162,0.0898,68.354,65.183,11.524,0.915,100729.21
-0.0039,-0.3989,0.0605,20.427,-40.488,26.829,0.4035,100728.8
0.3623,0.0737,-0.0874,20.427,-94.146,33.659,0.3799,100728.71
1.4072,0.3506,0.0449,-31.28,-48.72,11.463,1.4509,100728.66
1.4844,0.064,-0.7285,-145.061,-126.22,94.756,1.6547,100728.75
1.957,0.8691,-1.3208,-249.695,37.927,113.171,2.5159,100729.07
0.9062,1.2368,-0.9941,-39.939,23.963,98.293,1.8274,100728.56
-0.1992,0.7725,-0.4453,-78.415,5.183,87.012,0.9136,100728.81
-0.0859,0.6641,-0.666,-72.561,-26.89,13.11,0.9444,100728.73
-0.6113,0.1694,-0.2363,73.049,-28.537,3.293,0.677,100727.94
0.3481,0.5625,0.2837,110.0,29.573,-137.866,0.7198,100727.71
1.1006,0.7812,-0.4077,193.598,11.463,-238.415,1.4099,100728.29
1.1987,1.2114,-0.271,102.5,65.488,-130.244,1.7257,100728.61
1.3613,0.7427,-0.4287,-82.256,97.683,-93.963,1.6089,100729.08
1.4741,0.6543,-1.9927,-54.329,121.951,-41.768,2.5636,100728.81
1.1621,0.5845,-0.5,328.902,133.72,-51.829,1.3936,100729.24
1.1548,-0.2441,0.4155,155.244,-11.037,-69.939,1.2513,100729.19
0.0356,-0.4976,0.3105,50.427,-188.78,-10.122,0.5876,100729.9
0.373,-0.0508,0.6934,1.098,-62.012,72.988,0.789,100729.09
1.0562,0.4575,0.1279,-153.293,42.195,137.195,1.1581,100729.33
2.1602,0.6479,-0.8794,-226.585,-36.89,70.488,2.4206,100729.01
2.1592,1.873,-1.2954,-258.293,39.39,150.549,3.1382,100729.41
0.021,0.8818,-1.1987,-194.756,-31.524,217.378,1.4883,100729.34
0.0981,0.6616,-0.1201,-21.159,-102.073,14.756,0.6796,100728.91
-0.4058,0.3545,-0.375,40.793,-71.402,6.585,0.6565,100728.71
-0.4814,0.0063,0.3652,133.354,-20.122,17.439,0.6043,100728.3
0.4146,0.6948,-0.3359,95.671,-9.939,-114.756,0.8761,100728.99
1.4463,0.9473,-0.8091,96.098,55.305,-166.829,1.9088,100729.02
1.7007,1.3984,-0.7876,53.11,97.561,-73.11,2.3384,100728.91
1.2324,0.6201,-0.9834,-55.122,118.78,-12.195,1.6942,100730.34
0.9678,0.1719,-0.8779,60.122,57.378,-82.866,1.3179,100729.79
1.0337,-0.1064,0.0747,170.854,56.89,-85.061,1.0418,100731.1
0.499,-0.457,0.354,69.695,-37.378,-5.671,0.7637,100731.1
-0.1187,-0.4204,0.5591,38.415,-105.305,37.5,0.7095,100730.86
0.8794,0.4556,0.1533,-112.683,-4.634,89.939,1.0022,100730.3
1.6353,0.5288,-0.2241,-159.085,-107.5,78.415,1.7332,100729.75
2.271,0.8906,-1.1714,-200.061,-2.805,122.439,2.7061,100728.73
1.2393,1.1055,-1.2109,-163.963,19.024,102.744,2.0553,100728.71
0.2358,0.7656,-0.6909,-85.793,-47.805,70.366,1.0579,100729.57
0.0806,0.7852,-0.374,-57.805,-56.22,38.659,0.8734,100728.84
-0.4185,0.3706,-0.374,16.28,-62.5,30.244,0.6726,100728.66
-0.377,0.019,0.4194,109.817,-102.195,-50.915,0.5643,100727.64
0.4453,0.5127,-0.1987,95.549,-20.427,-134.573,0.7076,100728.27
1.2397,1.0356,-0.6494,112.317,81.829,-141.159,1.7411,100727.97
1.4253,1.3682,-0.688,19.878,126.89,-102.439,2.092,100728.63
1.3975,0.7891,-1.5439,-71.28,149.878,-50.549,2.2269,100728.63
1.165,0.4019,-0.874,97.561,93.537,-56.89,1.5109,100729.12
0.9194,-0.187,0.3179,192.195,98.537,-36.463,0.9906,100728.88
0.0522,-0.4609,-0.0068,22.317,33.902,28.049,0.4639,100729.05
0.2622,-0.3359,0.4683,-31.463,-53.049,13.902,0.6331,100728.58
1.2251,0.5601,0.4561,-122.683,-48.293,6.585,1.4222,100729.34
1.7832,0.5801,-0.4189,-211.524,-123.476,57.683,1.9214,100729.05
1.7197,1.0713,-1.1191,-160.0,-27.317,70.122,2.3146,100729.34
0.8071,1.1631,-0.73,-93.963,50.122,73.415,1.5928,100729.04
0.1367,0.6123,-0.4355,-87.256,-67.195,51.646,0.7637,100729.31
0.0317,0.6782,-0.4604,-19.39,-87.073,25.305,0.8204,100729.27
-0.5239,0.3311,-0.0898,60.427,-34.878,26.402,0.6262,100729.75
0.1289,0.4185,-0.1621,111.402,-117.439,-87.317,0.4669,100730.22
0.9214,0.6533,-0.2617,170.549,-34.451,-142.134,1.1594,100729.33
1.7349,1.8828,-0.7803,189.695,114.695,-145.793,2.6765,100729.42
1.1431,1.0337,-0.7861,78.72,116.951,-60.976,1.7301,100729.26
1.166,-0.0415,-1.1309,44.451,62.195,-61.585,1.6249,100729.75
0.8223,0.0215,-0.3628,117.439,36.463,-70.0,0.899,100729.34
0.6885,-0.2754,0.2241,48.537,-1.524,-14.39,0.7746,100730.16
0.104,-0.5762,0.1064,33.476,-103.232,6.585,0.5951,100729.3
0.5718,-0.0425,0.1074,12.317,-60.549,47.561,0.5833,100729.5
0.8857,0.2661,-0.2646,-38.659,-6.22,120.488,0.962,100729.78
1.9155,0.5747,-1.0601,-115.183,-56.341,87.805,2.2635,100729.02
1.792,0.9243,-1.0957,-173.293,-21.524,124.695,2.2948,100729.18
0.2539,0.7412,-1.395,-142.256,0.549,187.195,1.6,100729.17
0.2012,0.5635,-0.4883,-150.366,-51.646,101.098,0.7723,100728.05
-0.0845,0.6016,-0.4336,-5.61,-38.11,30.61,0.7463,100728.84
-0.5039,0.3833,-0.3052,34.207,-35.549,9.39,0.7028,100729.55
0.2651,0.4009,-0.2837,71.524,-110.305,-127.256,0.5581,100729.72
0.9214,0.7998,-0.6914,134.268,-28.049,-166.037,1.4024,100730.1
1.2729,1.6201,-0.7202,145.549,32.683,-172.622,2.1826,100729.37
0.4961,0.666,-0.7808,3.354,116.28,-102.927,1.1399,100730.07
1.4561,0.1333,-1.4888,-190.427,109.268,-59.878,2.0867,100729.37
0.8125,0.4463,-0.8374,4.024,33.841,-19.085,1.2492,100730.05
0.6899,-0.3525,0.0654,90.732,-28.476,-47.561,0.7775,100730.08
0.4023,-0.5073,-0.1455,21.524,-69.756,-26.22,0.6636,100730.86
0.3633,-0.0283,0.21,20.122,-114.817,19.329,0.4205,100731.95
1.0415,0.2397,0.0225,-68.232,-8.476,122.683,1.069,100731.77
1.6187,0.8428,-0.8169,-226.707,-33.598,119.939,1.9994,100731.02
1.6558,1.332,-1.4233,-194.695,53.049,178.659,2.5577,100731.07
0.4575,1.3369,-1.1235,-137.073,9.39,197.5,1.8053,100730.62
0.1245,0.8232,-0.3062,-101.89,-39.817,73.537,0.8871,100729.41
-0.1196,0.6108,-0.5806,-42.256,17.988,49.451,0.8512,100728.9
-0.3501,0.2461,-0.1094,87.378,-17.927,-21.768,0.4417,100727.84
0.1108,0.4429,0.0444,122.5,-37.744,-132.622,0.4587,100728.95
0.583,0.437,-0.0166,95.0,16.098,-132.256,0.7288,100730.27
1.1021,1.457,-0.686,72.012,128.232,-114.329,1.9514,100730.27
1.2915,1.5317,-0.7788,160.0,206.28,-75.427,2.1496,100730.26
1.6738,0.2427,-1.1606,29.451,263.598,-17.927,2.0513,100729.77
1.3232,0.1348,-0.5767,144.329,69.878,-54.817,1.4497,100729.37
0.7061,-0.2046,0.27,141.28,-5.061,-18.598,0.7831,100730.21
0.3384,-0.4424,0.2402,56.768,-98.537,-9.878,0.6066,100730.98
0.2427,-0.1665,0.2422,-26.768,-76.585,42.805,0.3811,100731.05
1.0591,0.3916,0.3525,-85.122,-5.0,76.951,1.1829,100731.24
1.4858,0.437,-0.3696,-174.573,-29.451,78.841,1.5923,100730.88
1.937,1.1372,-0.7119,-201.402,40.915,65.671,2.3563,100730.6
0.8042,1.1929,-1.4775,-177.256,39.634,115.427,2.0622,100730.92
0.458,0.5952,-0.2769,-62.317,-27.561,45.061,0.8004,100729.77
0.1587,0.7061,-0.2808,-51.037,-53.049,47.927,0.7762,100729.41
-0.2295,0.4175,-0.2231,26.22,-82.439,7.256,0.5261,100729.25
-0.3032,0.2407,0.0986,108.11,-112.317,-92.195,0.3995,100729.76
0.7417,0.7734,-0.3398,102.927,-7.5,-134.268,1.1242,100730.65
1.5322,1.6885,-0.5503,96.951,103.963,-123.72,2.3455,100730.06
1.5005,1.1724,-0.5732,46.646,176.829,-56.524,1.9886,100730.86
1.2769,0.3525,-1.3442,72.744,130.244,-32.683,1.8872,100729.97
1.083,0.4019,-0.6885,214.207,34.939,-46.159,1.3448,100730.8
0.7529,-0.2729,0.1768,146.463,31.768,16.707,0.8202,100731.17
0.2236,-0.6025,0.4526,61.829,-100.061,-3.72,0.7861,100731.95
0.3862,-0.2222,0.3208,17.317,-163.963,-26.159,0.549,100731.28
1.2725,0.313,0.3228,-74.939,-71.463,67.439,1.3496,100731.53
1.5264,0.3262,-0.7061,-149.451,-75.488,104.146,1.7131,100732.11
1.626,1.0342,-1.0625,-199.207,51.402,130.122,2.2005,100732.16
0.7822,1.1069,-1.4604,-191.707,61.829,179.146,1.9925,100730.59
-0.2041,0.5112,-0.2866,-11.037,-44.451,35.732,0.6206,100731.12
-0.2451,0.5718,-0.2456,37.561,10.549,-4.695,0.6688,100730.56
0.0693,0.2051,0.0356,96.463,-28.598,-66.707,0.2194,100731.24
1.0835,0.7271,-0.6772,73.049,50.183,-131.768,1.4701,100731.38
1.6602,1.4878,-0.792,57.195,66.524,-128.171,2.3658,100731.37
1.5605,0.8989,-0.457,29.207,121.341,-67.988,1.858,100731.84
1.1758,0.1631,-1.1968,29.512,204.878,-6.28,1.6856,100731.84
1.2964,0.062,-0.6729,88.415,100.732,-22.927,1.4619,100731.57
0.6519,-0.23,0.0078,49.634,-20.305,-13.415,0.6913,100731.99
-0.3062,-0.4512,0.3799,26.829,-129.207,10.183,0.6645,100731.96
0.5557,-0.103,0.3467,-29.695,-74.268,28.537,0.663,100731.55
1.0239,-0.0093,0.394,-82.134,25.671,113.293,1.0972,100732.01
1.21,0.3442,-0.4038,-145.366,-124.146,39.207,1.3212,100732.97
1.9272,1.0015,-0.7729,-212.378,-35.549,28.293,2.3054,100732.31
1.5298,1.4966,-1.6011,-169.268,67.439,109.207,2.6727,100732.71
0.1846,0.7837,-0.5503,-122.012,8.232,113.171,0.9752,100732.99
0.1348,0.6807,-0.3413,-43.171,-67.622,18.11,0.7733,100732.46
-0.3511,0.2656,-0.207,70.915,-45.0,-3.659,0.4865,100732.19
-0.2998,0.0107,0.1909,101.524,-57.561,-63.415,0.3556,100732.22
0.9497,0.6094,-0.2085,79.756,10.366,-148.171,1.1475,100731.38
1.3062,1.3345,-0.5088,96.89,112.805,-122.744,1.9354,100731.5
2.0723,1.3989,-0.7236,-1.402,119.939,-64.512,2.6029,100731.47
1.2183,0.4912,-1.3794,73.415,154.329,15.488,1.9048,100731.68
1.0664,0.3042,-0.0693,129.085,155.122,12.866,1.1111,100732.09
-0.2324,-0.5283,0.0645,66.768,-154.878,-15.244,0.5808,100731.57
-0.2505,-0.478,0.2153,48.11,-79.268,-44.146,0.5811,100731.77
1.5112,0.3945,0.6294,-51.22,25.915,-6.829,1.6839,100731.05
1.853,0.2578,-0.3999,-172.622,-82.744,84.573,1.9131,100731.62
2.2822,0.8433,-0.6362,-167.012,-39.817,50.244,2.5148,100732.17
0.8906,1.457,-1.2524,-217.012,1.585,158.537,2.1177,100730.99
0.2285,0.7012,-0.3213,-110.915,-71.951,97.012,0.8044,100730.84
-0.2402,0.6333,-0.2598,-61.768,-84.573,67.988,0.7254,100730.6
-0.6338,0.4663,-0.1719,20.0,-55.549,5.427,0.8054,100730.41
0.0024,0.4175,0.0537,88.11,-76.402,-98.232,0.4209,100731.65
0.9014,0.9312,-0.5747,102.561,13.293,-163.659,1.4177,100731.84
1.6309,1.6929,-0.4561,121.037,185.122,-147.5,2.3945,100731.1
2.2109,1.5713,-0.5522,52.622,183.598,-94.085,2.7681,100731.81
0.8213,-0.1123,-0.5952,70.854,38.537,-13.049,1.0205,100731.31
0.8599,-0.1846,-0.2866,99.634,57.683,-53.902,0.925,100730.95
0.9448,-0.0645,-0.2397,31.037,62.805,1.951,0.9769,100731.55
0.0718,-0.292,-0.2075,10.488,-69.329,27.5,0.3653,100731.26
0.3413,-0.1909,0.2837,73.841,-185.549,-3.598,0.4831,100732.04
1.0947,0.1499,0.4453,-30.488,-95.976,90.122,1.1913,100731.76
1.583,0.6104,-0.4717,-143.598,-116.037,115.671,1.7609,100731.8
2.3066,1.0684,-1.2529,-196.159,-8.902,101.89,2.834,100731.59
0.4624,1.1079,-0.6445,-100.671,93.476,162.622,1.3626,100730.42
-0.0732,0.8809,-0.6201,-165.61,121.707,116.037,1.0797,100729.8
0.4468,0.8301,-0.8848,-85.427,20.671,-18.78,1.2928,100729.1
-0.2764,0.2393,0.5015,150.427,-83.659,-81.037,0.6206,100729.09
0.4678,0.5771,-0.0249,128.293,-44.939,-184.146,0.7433,100729.4
1.0947,1.0449,-0.1924,157.317,141.159,-153.171,1.5255,100729.78
2.3115,1.958,-0.7363,69.512,154.39,-119.085,3.1175,100729.34
0.7837,0.1484,-0.6401,17.439,21.463,4.512,1.0227,100730.09
0.9634,0.0229,-1.0879,82.195,63.171,-89.207,1.4533,100730.3
1.0947,0.1411,-0.1958,58.78,129.695,8.841,1.121,100731.32
0.7144,-0.3657,0.0806,25.0,-9.939,40.61,0.8066,100731.35
-0.1436,-0.5542,0.1387,34.39,-185.427,16.463,0.589,100731.12
0.9019,0.2959,0.1709,-15.976,-43.415,55.0,0.9644,100731.68
2.1694,0.9077,-0.4297,-131.22,-61.585,86.768,2.3906,100731.5
1.8467,1.0132,-0.7324,-167.378,-34.695,117.195,2.2301,100731.61
0.3843,0.6118,-0.6953,-158.415,-15.976,115.915,1.0027,100732.8
0.5488,1.105,-1.0869,-240.183,16.646,101.463,1.6443,100732.08
0.3887,0.6787,-0.4819,-25.915,-18.476,26.89,0.9187,100732.53
-0.2524,0.4683,-0.4673,-9.451,-2.256,49.024,0.7081,100732.88
-0.4194,0.4707,0.2354,200.793,-132.805,-136.28,0.673,100732.9
0.0781,0.5996,-0.1631,170.976,-64.39,-177.744,0.6263,100732.77
1.3276,1.0493,-0.2383,198.963,43.476,-200.854,1.7089,100732.69
1.2964,1.5156,-0.5884,104.146,143.963,-137.927,2.0794,100732.01
1.334,0.5596,-0.8638,-42.866,149.146,-31.585,1.6849,100732.73
1.2925,0.0469,-1.416,40.915,60.244,-79.085,1.9178,100733.04
0.5142,-0.0347,-0.1128,89.878,74.39,0.0,0.5275,100732.63
0.7505,-0.2588,0.2178,-0.183,-31.402,18.354,0.8232,100732.96
0.2964,-0.3877,0.105,-8.659,-133.171,43.841,0.4992,100732.09
0.6055,0.1973,0.0269,-41.829,-21.22,77.012,0.6374,100731.8
1.4019,0.5044,-0.4536,-114.329,-13.78,82.134,1.5574,100731.09
2.3174,0.957,-0.8867,-203.659,26.829,109.878,2.6594,100731.45
1.0845,1.2842,-1.2339,-191.28,-10.976,128.171,2.0851,100731.34
0.002,0.6094,-0.4448,-92.134,-124.268,98.902,0.7545,100731.24
-0.0625,0.4287,-0.1982,-77.5,-38.415,67.5,0.4764,100731.19
-0.3169,0.3047,-0.2349,7.927,-12.5,18.415,0.4984,100731.37
-0.0732,0.3799,-0.0674,49.085,-22.5,-74.146,0.3927,100731.41
0.7148,0.8003,-0.5684,104.329,10.427,-141.22,1.2143,100731.66
1.1636,1.2114,-0.5654,155.549,73.659,-150.183,1.7723,100731.75
1.458,1.7705,-0.8242,69.024,85.122,-106.037,2.4372,100732.05
1.0586,0.6123,-0.9697,-2.744,53.841,-24.878,1.5607,100732.04
0.6787,-0.1338,-0.6235,52.5,-18.537,-54.146,0.9313,100732.15
0.8604,-0.0322,-0.0474,62.012,67.744,-32.683,0.8623,100731.85
0.9053,-0.2695,-0.1812,12.012,63.902,38.598,0.9618,100731.77
0.125,-0.3413,0.2681,45.854,-84.146,45.976,0.4516,100732.45
0.7085,0.2881,0.3291,-39.878,-50.854,47.622,0.8326,100732.59
1.2036,0.5566,-0.499,-148.415,-131.463,73.049,1.4169,100732.94
2.1724,0.9077,-1.1157,-167.317,-37.073,92.866,2.6054,100733.06
1.0762,1.1899,-1.0952,-115.0,21.341,99.207,1.9426,100732.17
0.0918,0.8413,-0.7749,-108.293,-30.0,91.585,1.1475,100730.78
0.2656,0.6631,-0.4688,-99.634,-40.488,74.634,0.8544,100729.59
-0.2651,0.3457,-0.3979,27.683,-20.488,49.878,0.5901,100729.46
-0.4424,0.1177,0.3169,104.573,-48.537,-59.268,0.5568,100730.09
0.272,0.5781,-0.2236,53.537,-60.244,-142.866,0.6769,100730.45
1.1294,1.1372,-0.4233,126.707,85.061,-141.098,1.6577,100729.73
1.1201,1.5811,-0.6611,76.159,152.622,-126.89,2.0473,100730.18
1.4141,0.5986,-0.9385,-8.476,147.195,-71.585,1.7996,100731.27
1.2954,0.4697,-1.3418,8.415,164.756,-32.439,1.9233,100729.83
1.0659,0.0801,-0.1343,152.622,20.183,-46.341,1.0773,100730.88
0.6812,-0.2939,0.0811,72.5,6.159,38.11,0.7463,100731.16
0.0532,-0.417,0.4595,45.915,-167.622,32.317,0.6228,100731.99
0.6411,0.0332,0.3125,-35.671,-78.659,65.0,0.714,100733.12
1.5088,0.5093,-0.1812,-126.585,-103.598,90.061,1.6027,100733.23
1.5991,0.8433,-0.998,-166.341,-105.793,98.902,2.065,100733.16
1.1719,1.4556,-1.6489,-150.549,61.89,117.012,2.4922,100732.88
0.2715,0.7456,-0.8896,-95.549,53.598,143.049,1.1921,100733.44
0.1455,0.6367,-0.1055,-67.073,23.171,109.451,0.6616,100731.97
-0.2969,0.4346,-0.5327,14.756,-44.573,11.22,0.7488,100731.12
-0.5195,0.2065,0.1636,100.366,-53.963,-58.537,0.5825,100731.85
0.417,0.7734,-0.416,67.744,-1.037,-135.915,0.9722,100731.17
1.271,1.0122,-0.2959,152.378,71.341,-154.695,1.6515,100731.88
1.5615,1.791,-0.543,140.488,177.073,-121.341,2.4374,100731.05
1.5962,0.4243,-0.7671,35.793,152.988,-49.695,1.8211,100731.05
1.2236,-0.272,-0.8408,41.707,64.512,-39.817,1.5094,100732.4
0.9878,0.0601,-0.4287,66.951,9.329,-54.024,1.0785,100732.02
0.4688,-0.0356,-0.1035,38.72,-45.061,-7.988,0.4814,100731.12
0.0464,-0.4458,0.394,47.622,-157.805,-8.598,0.5968,100731.8
1.146,0.2368,0.2559,-7.622,-116.585,24.39,1.1979,100732.3
1.1855,0.2119,-0.1426,-104.268,-74.634,121.463,1.2127,100733.16
1.8262,0.8237,-0.7642,-176.585,-15.671,87.683,2.1441,100733.2
1.3848,1.6421,-1.625,-264.085,54.024,156.768,2.6934,100733.71
-0.0864,0.6196,-0.8638,-182.683,-14.817,165.732,1.0665,100732.62
0.1309,0.4492,0.2109,54.329,-28.11,0.122,0.5132,100733.31
-0.6138,0.5337,-0.1665,-8.354,-0.732,36.28,0.8302,100733.45
-0.4146,0.3193,-0.0601,90.366,1.463,-63.841,0.5267,100733.16
1.0693,0.9648,-0.3779,126.037,52.195,-149.329,1.489,100732.45
1.9224,1.7681,-0.5791,152.195,101.768,-150.488,2.6752,100732.41
1.3359,1.3711,-0.1821,89.451,106.402,-73.841,1.923,100731.27
1.0498,0.0474,-0.7373,-1.707,66.707,-29.207,1.2837,100731.77
1.2788,0.1177,-0.9146,57.439,64.024,-61.585,1.5766,100730.77
0.894,0.084,-0.0498,75.427,80.061,37.378,0.8994,100730.89
0.0635,-0.4053,0.3057,26.951,-18.72,75.183,0.5116,100730.47
-0.0181,-0.5503,0.2729,43.78,-180.122,1.037,0.6145,100730.62
0.8892,0.3477,0.4473,-23.415,-34.756,37.805,1.0543,100731.0
1.4561,0.6387,-0.5098,-142.866,-84.939,65.732,1.6697,100730.16
2.708,1.1655,-1.1982,-227.5,7.256,68.598,3.1824,100730.16
0.8242,1.1382,-1.1855,-277.927,-26.585,206.829,1.8386,100730.28
-0.189,0.5269,-0.0469,-204.573,-48.841,114.024,0.5617,100730.89
0.3374,0.5928,-0.1973,-135.305,7.561,33.415,0.71,100730.57
-0.0122,0.9053,-0.5845,51.768,26.707,4.451,1.0776,100729.75
0.0464,0.4551,0.0635,165.854,-86.768,-93.171,0.4618,100729.87
0.6924,0.6436,-0.2295,103.841,-71.646,-175.671,0.9727,100729.56
1.0552,1.4795,-0.5879,243.049,83.11,-149.939,1.9099,100729.6
1.9639,1.4946,0.1138,382.5,131.585,-216.28,2.4706,100729.4
1.1255,0.3286,-0.5977,30.793,49.634,-93.049,1.316,100729.37
0.7627,-0.4165,-0.5889,21.951,11.159,-34.024,1.0497,100729.97
0.6436,-0.248,-0.3828,28.049,49.024,-5.244,0.7888,100730.55
0.2749,-0.3511,-0.0508,5.732,-74.634,24.756,0.4488,100730.23
0.208,-0.2759,0.0225,-0.915,-96.951,46.22,0.3462,100731.36
1.2085,0.3008,-0.0029,-49.573,13.841,92.195,1.2454,100732.34
1.5269,0.5806,-0.4434,-104.512,-54.756,114.085,1.6926,100733.2
2.2715,0.9658,-0.9019,-202.073,15.793,126.22,2.6279,100733.84
0.4487,1.1201,-1.0938,-116.098,42.5,129.573,1.6286,100733.45
0.1807,0.8374,-1.0352,-166.22,15.854,104.268,1.3437,100732.67
0.394,0.8247,-0.6377,-92.134,8.049,53.537,1.1145,100732.7
-0.1387,0.4053,-0.6616,29.634,-20.732,0.549,0.7882,100731.85
-0.2563,0.1694,0.5352,124.329,-87.988,-71.707,0.6171,100729.99
0.3486,0.5938,-0.2891,111.463,-61.89,-157.561,0.7468,100729.55
1.3232,1.4375,-0.4917,149.512,93.537,-196.159,2.0147,100729.73
1.4956,1.2773,-0.3408,123.476,108.78,-145.793,1.9961,100729.97
1.1006,0.3877,-1.0269,-22.683,85.0,-54.024,1.5544,100730.66
0.998,0.2075,-0.8994,21.341,14.268,-66.037,1.3595,100730.54
0.7686,-0.0693,0.0195,66.829,66.159,13.963,0.7719,100730.85
0.8882,-0.2593,-0.0933,4.878,45.305,62.805,0.9299,100731.07
-0.0625,-0.3765,0.0591,44.146,-79.634,52.988,0.3862,100732.61
0.9907,0.2983,0.1836,-16.768,-11.707,57.622,1.0508,100732.4
1.5449,0.458,-0.0825,-143.232,-33.476,96.646,1.6135,100732.62
2.3491,1.1099,-1.0293,-222.805,-43.049,79.634,2.7946,100731.91
0.0938,0.731,-0.2505,-65.915,-48.354,26.402,0.7784,100730.52
-0.2808,0.4087,-0.2354,5.183,-39.207,12.988,0.5489,100730.47
-0.7012,-0.0757,0.3623,57.317,0.061,-12.317,0.7929,100728.93
0.4668,0.6372,-0.2949,55.366,32.317,-136.768,0.8432,100729.41
1.6074,1.3159,-0.771,87.378,53.659,-231.951,2.2158,100729.37
1.8057,2.0483,-0.853,89.512,103.659,-173.963,2.8607,100730.09
1.3301,0.8164,-0.6465,109.451,105.671,-91.463,1.6893,100730.02
0.8208,-0.0767,-0.6963,96.402,76.402,-37.439,1.0791,100730.95
0.9487,0.0586,-0.3691,78.902,43.293,-15.854,1.0197,100730.91
0.6353,-0.0728,0.0625,61.585,-96.768,34.085,0.6425,100731.62
0.0063,-0.5786,0.5991,77.5,-129.634,50.854,0.8329,100731.53
1.061,0.0786,0.4888,-15.793,13.293,92.927,1.1708,100732.84
1.3052,0.6611,-0.4824,-129.329,-32.744,88.415,1.5406,100734.07
2.2026,1.4336,-1.4575,-188.841,-97.317,35.427,3.0052,100733.98
0.8164,0.9053,-1.103,-110.732,-32.683,129.207,1.644,100733.81
-0.29,0.3862,-0.4663,-86.28,63.476,162.195,0.6714,100732.06
-0.29,0.3862,-0.4663,-86.28,63.476,162.195,0.6714,100731.38
0.0718,0.5312,-0.0679,-127.988,24.756,99.268,0.5404,100730.98
-0.1157,0.4834,-0.4331,-132.805,-32.256,46.768,0.6593,100732.32
-0.3149,0.1479,0.2578,52.378,-35.976,-34.451,0.4331,100732.55
0.6489,0.813,-0.2715,112.988,16.159,-131.28,1.0751,100732.48
1.3872,1.0425,-0.2329,99.085,20.427,-178.963,1.7508,100732.05
2.0024,2.1421,-0.6489,67.561,130.488,-117.073,3.0032,100732.0
0.8687,-0.0674,-1.0264,40.732,11.89,-37.5,1.3463,100731.27
1.1118,0.0146,-0.4985,73.72,62.805,-32.256,1.2186,100731.13
1.1367,-0.0552,-0.4873,22.073,8.598,20.305,1.238,100730.66
0.1094,-0.3569,0.2573,36.646,-151.89,43.537,0.4534,100731.46
-0.1987,-0.3784,0.729,48.049,-175.671,54.756,0.8451,100732.03
0.8877,0.3618,-0.0894,-92.805,-27.195,104.878,0.9628,100732.6
1.439,0.6904,-0.4463,-100.183,-126.159,69.817,1.6573,100732.41
1.6621,0.9644,-1.2183,-203.049,-10.244,107.195,2.2752,100732.27
1.2607,1.21,-1.1602,-198.11,58.902,154.573,2.0975,100731.52
0.2056,0.9722,-0.8271,-200.366,74.085,183.659,1.2929,100730.85
0.3872,0.7319,-0.3579,-84.634,-53.171,8.78,0.9021,100730.23
-0.3105,0.5527,-0.1328,61.951,-104.573,3.902,0.6478,100730.12
-0.6167,0.0854,0.375,155.122,-25.854,-6.768,0.7268,100730.16
0.2036,0.728,-0.1201,139.085,-38.72,-216.159,0.7654,100730.45
1.4053,1.8018,-1.4648,40.061,71.037,-224.756,2.7142,100730.43
2.2876,2.1543,-0.5522,177.012,121.22,-161.098,3.1905,100729.63
0.833,0.2939,0.0054,95.0,66.585,-68.171,0.8834,100729.54
0.6479,-0.6265,-0.2485,27.622,13.11,-75.61,0.9349,100731.31
0.5571,-0.0352,-0.3169,43.354,65.0,-56.28,0.6419,100731.16
0.4468,-0.229,-0.2471,6.829,70.61,-8.537,0.5596,100731.8
0.3662,-0.1367,-0.3467,-4.573,-34.451,-13.293,0.5225,100733.27
0.7529,0.2207,-0.0195,16.159,-68.537,36.159,0.7849,100733.0
1.2515,0.5117,-0.417,-84.756,-56.585,111.22,1.4149,100732.8
2.6206,1.1724,-1.415,-200.061,-22.195,105.671,3.2007,100732.91
1.2764,1.1362,-1.0005,-90.183,-70.976,103.476,1.9802,100732.38
-0.437,0.7666,-0.3496,-85.366,-37.805,135.0,0.9491,100731.48
-0.0103,0.7031,-0.4087,-167.988,-24.634,140.488,0.8133,100731.05
0.3584,0.5576,-0.646,-55.061,-10.366,41.402,0.9256,100730.45
-0.4399,0.3838,0.0654,136.585,-44.573,1.037,0.5875,100730.75
-0.3433,0.2808,0.375,165.549,-19.268,-103.293,0.5808,100730.61
1.0088,1.3687,-0.8164,19.146,-17.073,-228.841,1.8861,100729.75
2.0938,2.3652,-1.022,85.976,121.707,-147.256,3.32,100729.11
1.2563,1.02,0.0049,259.146,89.573,-148.659,1.6183,100729.38
0.311,-0.2192,-0.3599,18.354,36.22,-74.146,0.5237,100730.18
0.8208,0.1953,-0.7949,-11.402,77.439,-80.976,1.1592,100730.29
0.7349,-0.0771,-0.2817,16.585,72.195,-36.768,0.7908,100730.75
0.6646,-0.2012,-0.8188,-47.866,-13.293,4.756,1.0736,100730.71
0.6226,-0.1123,0.0176,52.927,-108.659,37.439,0.6329,100731.05
0.7231,0.0547,0.4365,44.268,-101.768,110.366,0.8465,100731.95
1.2153,0.5537,-0.4033,-146.768,-117.988,128.537,1.3951,100731.02
2.249,1.1719,-1.4995,-202.561,64.329,161.707,2.9462,100730.92
0.4185,1.1475,-1.1411,-29.634,100.0,194.39,1.6715,100731.01
0.1997,0.8521,-0.6133,-22.622,105.854,147.439,1.0686,100730.31
0.4131,0.6162,-0.5122,-122.439,-36.89,20.976,0.9015,100729.67
-0.1519,0.4604,-0.3408,-3.598,-109.756,-34.878,0.5926,100729.45
-0.501,0.1689,0.2412,66.402,-84.451,-50.976,0.5811,100730.15
0.4556,0.8569,-0.3359,23.476,-54.268,-142.256,1.027,100730.55
1.7769,1.8066,-0.583,44.878,127.683,-152.927,2.6002,100730.22
1.4233,1.3208,-0.1982,155.793,170.793,-80.305,1.9518,100730.59
0.8013,0.2192,-0.6099,42.988,80.671,-50.915,1.0305,100730.86
1.2471,-0.0161,-0.7007,25.732,42.622,-82.256,1.4305,100730.59
0.9785,-0.1724,-0.3867,62.561,84.268,10.427,1.0662,100730.52
0.7686,-0.0347,-0.5869,-38.78,124.451,122.317,0.9676,100730.46
-0.1025,-0.7598,0.5063,31.159,-53.72,119.329,0.9188,100731.91
0.8955,0.3779,0.1318,-72.012,-133.598,2.561,0.9809,100732.13
1.1646,0.3809,-0.4404,-145.244,-139.329,35.0,1.302,100732.02
1.8311,0.5215,-0.1685,-140.183,-39.512,112.317,1.9113,100732.58
1.0547,1.2466,-0.8623,-193.049,-15.61,90.183,1.8466,100732.15
0.376,1.1523,-1.1685,-138.537,-53.11,34.085,1.6836,100731.95
0.1812,0.5513,-0.3193,-96.098,-55.671,47.866,0.6623,100731.16
-0.4678,0.5127,-0.4375,-18.537,-6.524,40.061,0.8204,100730.58
-0.4688,0.2402,0.1582,54.451,21.22,6.585,0.55,100731.14
0.8276,0.8496,-0.3662,93.171,20.366,-92.988,1.2413,100730.94
1.7559,1.6636,-0.9961,131.585,72.5,-108.171,2.6159,100730.66
1.2686,1.3384,0.0762,190.061,78.902,-112.439,1.8456,100730.93
0.9619,0.603,-0.3486,85.61,85.244,-104.634,1.1876,100731.52
1.1475,0.1802,-0.7935,33.963,112.744,-83.659,1.4067,100731.94
1.0278,-0.1021,0.0273,123.476,21.707,-65.915,1.0332,100731.52
0.6631,-0.2979,-0.2393,1.768,64.695,4.024,0.7653,100730.93
0.792,-0.4072,-0.0601,10.915,-28.171,8.841,0.8926,100731.26
0.5825,0.0039,0.0376,51.524,-125.488,26.524,0.5837,100731.26
1.2842,0.3291,0.1592,-63.049,-62.378,93.049,1.3352,100732.49
1.7314,0.3423,-0.2036,-150.183,-173.598,102.012,1.7767,100732.8
1.6201,0.7739,-0.4111,-205.61,-90.122,131.768,1.8419,100731.77
0.4458,1.1279,-1.2676,-134.329,-3.963,142.195,1.7543,100731.91
0.353,0.9697,-0.7661,-154.573,-2.134,79.207,1.2853,100731.26
0.2061,0.8018,-0.6792,-138.415,-28.72,42.683,1.0708,100730.15
-0.2485,0.3896,-0.4663,-1.28,-31.402,29.512,0.6565,100728.43
-0.1836,0.0063,0.5264,108.598,-106.768,-60.549,0.5575,100729.27
0.3086,0.5845,-0.4878,78.476,-37.256,-144.573,0.8215,100730.76
2.0356,1.6235,-0.8613,78.598,145.671,-139.146,2.7426,100729.61
1.7271,1.1567,-0.1772,131.89,135.183,-37.988,2.0862,100729.38
0.7329,-0.2881,-0.4287,19.817,7.866,-71.89,0.8966,100728.95
1.0386,-0.1733,-1.0161,-6.28,-7.134,-108.841,1.4633,100728.89
1.0122,0.0488,-0.3291,-13.72,84.024,-23.476,1.0655,100729.32
0.7036,0.0137,-0.1938,-17.256,-29.329,-2.439,0.73,100730.16
0.2007,-0.0586,0.377,24.451,-202.195,37.622,0.431,100729.67
0.6201,-0.1299,0.46,-35.244,-165.549,98.659,0.7829,100729.41
1.3848,0.3872,-0.1392,-114.329,-81.768,113.598,1.4446,100729.73
2.6504,1.0044,-1.0518,-198.902,-53.415,130.854,3.0232,100729.72
1.0063,1.001,-1.1309,-136.707,-24.207,139.268,1.8148,100729.34
0.0747,0.9429,-0.9512,-101.22,-19.573,126.585,1.3414,100728.79
0.103,0.5596,-0.354,-123.293,-83.902,126.829,0.6701,100727.52
-0.2397,0.4653,-0.6787,-114.451,-66.768,106.951,0.8571,100726.93
0.0576,0.5615,-0.2705,-25.366,-47.927,24.512,0.6259,100727.1
0.4321,0.6206,-0.272,55.732,-81.28,-103.171,0.8037,100727.12
1.1372,1.1875,-1.1929,90.915,37.378,-136.159,2.0313,100727.12
1.1113,1.0493,-0.4243,130.0,53.232,-105.122,1.5862,100726.88
0.7607,0.4683,-0.1948,151.037,-11.22,-131.098,0.9143,100727.08
0.5186,0.0381,-0.7158,57.927,36.159,-108.171,0.8847,100727.21
1.1196,0.0068,-0.6191,-84.756,104.817,-13.171,1.2794,100727.92
1.1968,0.165,-0.3843,-104.756,112.317,52.134,1.2677,100729.08
0.5801,-0.1582,-0.9302,-45.732,4.695,63.476,1.1076,100729.7
0.6289,-0.2656,0.0068,69.329,-122.439,48.598,0.6827,100730.42
0.9409,0.1216,0.521,-25.915,-27.378,102.988,1.0824,100730.1
1.9775,0.8652,-0.2212,-155.244,-73.171,78.841,2.1698,100730.34
2.0312,1.0811,-0.3364,-179.939,-85.549,121.707,2.3255,100730.77
0.3022,0.6841,-0.4727,-154.817,-28.354,147.073,0.8847,100731.1
0.0918,1.0,-1.0474,-187.195,32.073,71.768,1.451,100730.61
0.1362,0.8945,-1.0073,-170.183,20.366,49.024,1.354,100729.49
0.0518,0.5474,-0.77,-49.146,7.256,48.72,0.9462,100728.42
0.0166,0.3374,0.1807,102.378,-92.012,-34.817,0.3831,100728.22
0.5264,0.645,-0.3413,98.902,-105.854,-132.012,0.8998,100727.7
1.127,1.1421,-0.7334,160.976,11.402,-174.085,1.7642,100728.17
1.2778,1.4521,-0.2178,137.622,99.329,-92.561,1.9465,100728.17
1.0747,0.2705,-0.1079,61.951,101.159,-52.012,1.1135,100728.52
0.7505,-0.1367,-0.5762,20.122,36.098,-55.915,0.956,100729.7
0.7017,-0.0015,-0.2476,-31.22,23.232,-20.427,0.7441,100729.93
0.5347,-0.0044,-0.4575,-110.305,19.756,25.244,0.7037,100730.98
0.5908,-0.0386,-0.5464,-22.683,-69.512,32.195,0.8057,100730.28
1.0142,0.2095,0.1206,28.841,-36.159,79.329,1.0426,100730.23
1.6904,0.5864,0.019,-76.341,-13.963,94.268,1.7894,100730.46
2.2852,1.0352,-0.165,-167.866,-76.768,85.976,2.5141,100732.0
0.7915,1.0703,-0.3145,-186.829,-129.939,158.598,1.3678,100732.4
0.0117,0.6816,-0.8071,-134.512,-46.22,116.951,1.0565,100731.59
0.1006,0.708,-0.4795,-105.854,10.183,50.427,0.861,100730.73
-0.0894,0.5679,-0.4155,-67.683,-25.549,6.098,0.7093,100731.21
-0.1577,0.5034,-0.3613,-14.878,-26.89,-28.415,0.6394,100730.3
0.3242,0.7876,-0.3789,70.976,-62.866,-111.22,0.9322,100730.27
0.8608,1.6401,-0.9414,86.89,53.963,-152.012,2.0778,100729.75
1.4131,1.8867,-0.2891,115.854,155.122,-69.207,2.3749,100730.09
0.9883,0.5278,0.5303,142.012,101.951,-23.11,1.2396,100730.48
0.9839,0.1953,-0.208,21.159,53.659,-40.427,1.0244,100731.27
0.96,-0.2231,-0.2505,-22.195,42.378,33.171,1.0169,100731.1
0.4521,-0.2549,-0.6274,-18.476,11.159,65.427,0.8143,100731.37
0.3364,0.0483,-1.064,-0.732,-12.683,80.061,1.1169,100731.55
1.0596,0.1743,0.7466,81.098,38.72,73.963,1.3078,100732.22
1.2622,0.5435,0.2993,-116.341,-70.854,92.5,1.4065,100732.71
1.9448,0.8428,-0.4951,-175.854,-134.573,93.841,2.1766,100731.7
1.2935,0.6362,-0.0474,-134.39,-63.232,120.183,1.4422,100731.7
0.3018,0.9727,-1.3408,-217.439,20.854,170.793,1.6837,100731.34
0.4102,0.7666,-0.3369,-18.293,161.707,62.256,0.9324,100730.94
0.4468,0.7842,-0.4644,-42.622,77.195,-18.354,1.015,100729.38
0.1089,0.5342,-0.2695,56.28,-132.683,-31.463,0.6082,100729.08
0.147,0.4521,0.146,151.89,-255.915,-117.012,0.4973,100730.12
0.5254,0.9546,-0.7349,87.195,-103.415,-151.463,1.3143,100731.03
1.4155,1.542,-0.2446,197.561,189.085,-136.951,2.1074,100731.19
1.646,0.8794,0.3999,221.585,160.0,-130.244,1.9085,100730.93
0.7222,-0.1104,-0.2788,45.488,28.232,-89.878,0.7819,100731.23
0.7451,-0.1206,-0.3496,-3.902,-2.5,-80.488,0.8318,100730.84
0.8096,-0.3184,-0.1392,-27.805,45.732,-21.768,0.881,100730.41
0.5024,-0.3359,-0.3784,-32.317,21.585,16.768,0.7131,100730.21
0.8374,0.0293,-0.4951,5.976,-6.951,26.159,0.9733,100731.09
1.9878,0.6934,-0.1353,-30.793,-14.024,68.902,2.1096,100731.12
1.8999,0.8364,-0.4824,-145.183,-127.378,108.537,2.1312,100730.88
1.3843,0.9419,-0.1587,-178.78,-110.671,112.439,1.6818,100731.34
0.3105,0.8765,-0.8091,-194.573,-70.427,127.439,1.2326,100731.66
-0.1826,0.8091,-0.3589,-86.22,-10.61,72.805,0.9037,100731.28
-0.2061,0.7275,-0.7119,-21.341,13.72,36.524,1.0386,100729.25
-0.2173,0.3032,-0.2554,80.061,30.366,41.037,0.4521,100728.48
0.1968,0.4688,0.1997,119.817,-31.707,-93.354,0.5462,100727.66
0.8491,1.0845,-0.6904,101.768,-52.378,-174.756,1.5407,100727.55
1.3936,1.2031,-0.8662,207.866,19.878,-171.646,2.0347,100727.21
1.7568,1.6626,-0.9165,163.72,140.854,-111.28,2.5866,100726.57
0.9307,0.395,-0.0898,127.317,24.634,-87.561,1.015,100726.97
0.542,-0.1201,-0.228,59.695,-20.61,-48.293,0.6002,100727.88
0.6221,-0.2065,0.2773,6.341,47.866,7.378,0.7117,100729.07
0.834,-0.355,0.2896,-61.89,-1.402,18.963,0.9515,100730.47
0.0947,-0.3242,-0.2529,-77.744,-106.951,62.927,0.422,100731.36
1.1318,0.2007,-0.6001,-91.037,11.524,107.012,1.2967,100731.95
1.7964,0.6899,-0.7471,-123.598,-39.451,130.732,2.0643,100731.63
1.6045,0.5879,-0.6851,-143.476,-132.561,159.512,1.841,100731.41
1.0762,0.8833,-0.5757,-123.72,-95.305,118.598,1.5066,100731.35
0.2573,1.064,-1.0317,-130.244,-17.866,112.012,1.5042,100731.44
0.1265,0.7036,-0.2554,-107.5,67.073,121.463,0.7591,100731.12
-0.292,0.6899,-0.4971,-72.561,46.829,39.695,0.8991,100730.4
-0.4404,0.54,-0.4966,29.329,-49.207,-30.427,0.8557,100729.09
0.2612,0.7637,-0.2363,96.402,-69.268,-139.573,0.841,100729.35
1.0635,1.29,-0.9297,151.829,-3.841,-204.024,1.913,100729.68
1.5376,1.3643,-0.2974,222.988,88.659,-192.439,2.077,100728.8
1.4268,0.9634,-0.2998,139.695,116.951,-144.512,1.7475,100728.65
0.8433,-0.022,-0.3101,70.183,51.585,-116.829,0.8987,100728.52
0.8188,-0.0591,-0.4507,12.683,45.549,-74.756,0.9365,100729.79
0.8701,-0.1992,-0.1426,-15.976,71.829,11.768,0.9039,100730.85
0.1523,-0.3037,-0.0771,-46.951,7.195,60.915,0.3484,100731.44
0.3701,-0.1533,-0.5151,0.549,-83.78,29.085,0.6526,100730.61
1.1133,0.1284,0.2148,-5.793,51.463,101.524,1.1411,100730.96
1.8306,0.7192,-0.9585,-116.22,-88.902,98.293,2.1879,100730.38
2.1543,1.0142,-1.0415,-175.549,-57.439,137.195,2.5989,100730.55
0.6479,0.7178,-0.1499,-92.256,-34.39,79.939,0.9785,100730.05
-0.3062,1.1479,-1.3892,-120.854,15.549,66.707,1.8279,100730.18
0.1938,0.7725,-0.9229,-89.451,127.561,101.707,1.219,100730.16
0.0596,0.3159,-0.3604,48.293,-14.268,7.439,0.4829,100728.65
-0.1377,0.5435,0.0269,122.866,-161.463,-114.695,0.5613,100728.63
0.3633,1.1367,-0.5361,110.244,-77.378,-183.841,1.3083,100728.63
1.3447,1.2803,-0.458,222.988,55.0,-201.768,1.9124,100728.12
1.3906,1.0264,-0.0532,191.951,108.902,-147.866,1.7292,100728.48
0.9507,-0.0928,0.0029,70.488,70.549,-177.805,0.9552,100729.13
0.7417,-0.0518,-0.668,-55.305,125.427,-91.402,0.9995,100729.0
0.8208,-0.0801,-0.2466,-97.317,183.902,28.841,0.8608,100729.9
0.729,-0.123,0.0195,-130.854,123.232,23.598,0.7396,100730.31
1.0161,0.5327,-1.0205,-84.634,-87.134,-28.841,1.5355,100730.88
0.9717,0.2881,0.064,-7.805,-35.427,80.61,1.0155,100731.94
1.2358,0.7002,0.042,-52.134,-156.89,50.732,1.421,100731.88
1.728,0.9766,-1.1685,-191.341,-146.037,138.415,2.3033,100730.93
1.3813,0.7227,0.1865,-57.927,-10.122,108.659,1.5701,100730.87
0.2451,1.2266,-1.2759,-152.012,-81.585,69.268,1.7867,100730.33
-0.0171,0.7529,-0.7539,-75.61,25.976,125.549,1.0656,100729.44
-0.04,0.4707,-0.4639,-1.341,-47.866,38.902,0.6621,100727.77
-0.4038,0.1777,0.2188,102.683,-140.549,-50.427,0.4924,100728.01
0.4438,0.6318,0.0825,93.476,-78.598,-129.939,0.7765,100728.45
0.689,0.9092,-0.4961,127.378,-11.829,-120.61,1.2439,100728.12
1.312,1.2275,-0.436,174.634,84.268,-143.415,1.8489,100729.03
1.1812,0.7925,-0.4082,60.854,143.78,-124.085,1.4798,100730.18
1.0171,0.2412,-0.7446,-58.537,91.524,-79.939,1.2834,100731.06
0.814,0.1152,-0.6396,-50.244,65.427,-14.695,1.0416,100731.45
0.5205,-0.207,-0.4097,-33.11,86.89,44.512,0.694,100732.13
0.5518,-0.2227,0.0029,2.378,-2.866,33.841,0.595,100732.65
1.0347,0.145,-0.2852,-25.183,-61.585,26.037,1.083,100732.8
1.3931,0.6982,0.0303,-98.232,-67.012,72.866,1.5586,100732.65
1.6309,0.606,-0.7383,-165.244,-192.195,91.707,1.89,100731.57
1.3271,0.6201,-1.0234,-108.11,-119.634,66.341,1.787,100731.35
0.4155,1.3809,-0.9956,-102.134,39.024,128.11,1.7523,100731.58
-0.21,0.7988,-0.3994,-59.695,44.268,79.756,0.9175,100731.0
0.1152,0.7339,-0.4404,-28.415,-77.195,1.768,0.8636,100729.42
-0.6704,0.3965,0.2241,104.878,-94.573,-9.39,0.8105,100729.74
0.5859,0.519,0.2578,92.927,-40.122,-138.659,0.8241,100730.48
0.7451,0.7656,-0.6128,78.415,34.207,-123.963,1.2316,100730.55
1.667,1.5752,-0.2988,115.0,247.378,-79.573,2.3129,100730.98
1.397,0.8755,-0.4385,48.415,209.024,-70.488,1.706,100731.28
1.1694,0.2251,-1.1958,7.866,82.744,-51.402,1.6877,100730.76
0.8442,0.0591,-0.5107,125.305,60.122,-21.402,0.9885,100730.38
0.1577,-0.5439,0.4541,86.463,89.268,58.171,0.7259,100730.46
0.3906,-0.5518,0.292,-24.207,-28.659,28.598,0.7364,100732.52
1.4033,0.3076,-0.1445,-15.366,-83.049,3.659,1.4439,100732.82
1.6929,0.6064,0.0088,-5.061,-92.927,59.817,1.7982,100733.27
1.314,0.4897,-0.7104,-112.866,-121.585,99.817,1.572,100732.63
1.5112,0.6851,-0.8657,-236.28,-47.744,101.585,1.8715,100732.28
0.5347,0.96,-1.167,-205.915,-30.549,140.915,1.6029,100730.78
0.1392,0.5381,-0.1304,-62.744,-47.134,33.11,0.5709,100730.76
-0.0449,0.7607,-0.3057,-30.915,-67.744,0.061,0.8211,100729.49
-0.5728,0.4595,-0.1675,54.451,-71.28,8.598,0.7531,100729.16
0.5391,0.5874,-0.0972,122.012,-86.037,-132.378,0.8032,100728.91
1.0234,1.0039,-0.603,144.146,-23.476,-142.439,1.5553,100728.5
1.6196,1.3857,-0.748,122.439,122.317,-101.341,2.259,100727.69
1.1328,0.502,-0.3926,85.915,104.146,-124.512,1.2997,100727.7
0.8159,-0.0435,-0.7339,-12.378,51.037,-75.122,1.0983,100728.08
0.7954,-0.0103,-0.4888,8.11,50.183,-33.78,0.9336,100728.87
0.457,-0.2144,-0.3423,-4.39,49.085,22.317,0.6099,100728.93
0.6562,-0.1191,-0.5918,-8.72,-33.293,20.854,0.8917,100729.73
1.0508,0.0103,0.166,69.39,-97.622,53.171,1.0639,100729.23
0.917,0.3315,-0.019,-29.268,-127.012,110.976,0.9753,100730.32
1.2383,0.499,-0.9053,-132.927,-137.561,128.232,1.613,100730.58
1.0054,0.3369,-0.5142,-135.488,-5.122,132.378,1.1784,100729.86
0.623,1.1079,-1.3755,-133.537,10.366,91.463,1.8729,100729.19
0.1182,0.7407,-0.7104,-116.098,134.451,144.146,1.0331,100728.7
0.5493,0.7563,-0.5005,-65.854,38.963,2.805,1.0603,100728.62
-0.4258,0.4648,-0.7222,29.39,-80.305,-17.012,0.9586,100728.16
0.1812,0.3867,-0.0103,117.134,-113.354,-103.963,0.4272,100728.7
0.9727,0.856,-0.6226,118.415,-57.256,-159.146,1.4375,100729.35
1.2856,1.4292,-0.9229,126.585,74.756,-77.744,2.1324,100728.96
1.1167,0.9556,-0.6104,90.671,80.0,-142.378,1.5914,100728.79
0.8677,0.0391,-1.0811,-14.756,73.841,-119.817,1.3867,100729.27
1.0967,-0.1025,-0.2222,106.707,37.866,-57.012,1.1236,100729.66
0.6494,-0.2236,0.0151,58.659,29.939,31.707,0.687,100730.19
0.5996,-0.311,-0.2432,-7.195,-50.0,53.659,0.7179,100730.8
