ax,ay,az,gx,gy,gz,avm,pressure
1.1626,-0.1836,-0.0298,9.39,-27.012,23.902,1.1774,100753.39
1.186,-0.1509,0.0171,24.268,-30.061,10.671,1.1957,100753.41
1.1895,-0.0566,0.1138,37.012,-25.488,-7.683,1.1962,100752.73
1.3213,-0.1504,-0.019,47.134,5.366,5.183,1.33,100752.95
1.1455,0.0229,0.1006,56.28,7.561,40.183,1.1501,100752.49
1.0186,-0.0186,0.1099,30.61,-5.671,42.622,1.0246,100753.38
0.6875,-0.1924,-0.1812,6.951,-3.598,52.439,0.7365,100753.29
0.8291,-0.1084,-0.1528,22.561,-6.89,21.098,0.85,100752.87
0.7969,-0.1348,-0.1011,22.561,-1.768,30.427,0.8145,100752.81
0.9111,-0.2305,-0.1318,13.902,3.902,30.305,0.949,100752.75
0.939,-0.2773,-0.0635,0.976,-33.415,8.11,0.9811,100752.95
0.9668,-0.2529,-0.1196,-29.268,-42.988,-6.646,1.0065,100752.85
1.0874,-0.271,-0.1929,-37.744,-45.488,-19.512,1.1371,100752.77
1.1577,-0.2051,-0.2051,-38.171,-54.451,-15.244,1.1935,100752.39
1.084,-0.3047,-0.377,-35.915,-35.0,9.451,1.1874,100752.45
1.1309,-0.4937,-0.1045,-4.817,-23.963,-22.561,1.2383,100752.13
1.0303,-0.293,-0.0454,-6.646,-26.098,-33.293,1.0721,100752.21
0.9648,-0.2192,-0.2417,-7.683,0.244,-15.244,1.0185,100752.56
0.7607,-0.2085,-0.2363,11.646,1.768,8.415,0.8234,100753.43
0.606,-0.2065,-0.188,17.561,11.646,9.634,0.6672,100753.6
0.7539,-0.2017,-0.208,11.28,20.854,-0.122,0.8077,100753.24
0.7222,-0.3027,-0.1797,4.329,19.024,6.89,0.8034,100752.34
0.7959,-0.3218,-0.1963,-14.878,10.915,0.061,0.8806,100751.67
0.8774,-0.3008,-0.2588,-29.085,3.72,-6.646,0.963,100752.77
1.2197,-0.2129,-0.1538,17.439,9.268,5.061,1.2477,100753.04
1.0737,0.0576,-0.2368,4.207,-1.463,-1.463,1.101,100752.68
0.9429,-0.0903,-0.2837,24.878,15.854,38.293,0.9888,100752.29
0.7173,-0.0669,-0.1138,26.037,-1.28,30.732,0.7293,100752.73
0.8599,-0.04,-0.2358,-4.573,-2.317,-2.988,0.8925,100752.34
0.8589,-0.0947,-0.3457,-7.256,-4.573,4.817,0.9307,100751.91
0.8262,-0.1821,-0.3027,1.463,-2.073,5.793,0.8985,100752.45
1.0078,-0.2212,-0.2959,-0.061,3.415,-5.427,1.0734,100751.98
1.1938,-0.1968,-0.209,-4.207,-0.366,-8.841,1.2279,100752.25
1.063,-0.2456,-0.2949,-20.366,-18.537,2.378,1.1302,100753.07
1.1172,-0.2847,-0.2524,-11.28,0.671,-9.939,1.1802,100752.7
1.1445,-0.312,-0.1025,-5.0,8.659,-20.732,1.1907,100753.52
0.9775,-0.2041,-0.2383,-18.537,9.085,-13.902,1.0267,100753.2
1.0049,-0.1953,-0.21,-1.098,19.512,-13.841,1.045,100752.68
0.791,-0.228,-0.1553,0.793,7.866,5.122,0.8377,100753.52
0.6592,-0.1709,-0.2109,-9.146,-0.305,3.72,0.7129,100752.92
0.7607,-0.1445,-0.2759,-6.341,6.402,-9.085,0.822,100752.61
1.0024,-0.2212,-0.2163,13.293,15.549,-10.427,1.0491,100752.4
0.981,-0.2256,-0.1855,19.146,4.207,4.085,1.0235,100753.2
0.9956,-0.2227,-0.1943,22.439,-8.841,-0.854,1.0385,100753.52
0.9966,-0.2168,-0.165,27.073,-13.841,3.049,1.0332,100754.16
1.1455,-0.1763,-0.0918,30.854,-7.683,-1.646,1.1626,100754.14
0.9927,-0.1299,-0.0278,22.012,3.841,8.78,1.0015,100752.7
1.022,-0.1445,-0.0835,11.524,15.427,2.622,1.0355,100752.2
1.0591,-0.2866,-0.0391,9.817,35.976,11.463,1.0979,100752.8
0.9185,-0.1958,-0.0845,-16.524,9.878,13.659,0.9429,100752.88
0.8413,-0.1362,-0.2856,-26.89,-1.402,1.829,0.8989,100752.59
0.8525,-0.1333,-0.1797,-8.049,2.5,9.146,0.8814,100752.6
0.7441,-0.1064,-0.165,-17.012,-7.256,14.939,0.7696,100752.63
0.9062,-0.0322,-0.3286,-25.0,2.012,0.366,0.9645,100751.92
1.1699,-0.0845,-0.3101,-4.756,12.134,0.854,1.2133,100752.6
1.0957,-0.252,-0.1831,-0.671,9.878,18.232,1.1391,100753.09
1.3477,-0.292,-0.1055,-15.915,23.293,9.268,1.383,100753.48
1.3315,-0.3521,0.0103,-19.634,0.671,18.232,1.3773,100753.16
0.8174,-0.2173,-0.0239,-37.134,-16.098,31.037,0.8461,100753.05
0.8257,-0.1572,-0.2441,-37.256,-2.195,-1.707,0.8753,100752.37
0.582,-0.189,-0.1987,-14.451,-6.463,7.378,0.6434,100752.34
0.6094,-0.2891,-0.23,-0.488,23.78,0.366,0.7126,100752.17
0.9316,-0.3657,-0.2148,18.354,41.951,-16.524,1.0237,100751.95
0.9214,-0.2266,-0.0557,15.183,24.207,-21.89,0.9505,100752.51
1.1284,-0.2456,-0.0884,1.524,12.195,-39.878,1.1582,100752.3
1.2544,-0.2075,-0.0132,6.159,-13.232,-22.134,1.2715,100752.54
1.0093,-0.1743,0.02,-0.854,-61.829,5.549,1.0244,100752.23
0.9243,-0.1611,-0.1729,5.915,-77.317,10.915,0.954,100751.97
0.9702,-0.3198,-0.1909,37.256,-50.915,26.22,1.0393,100751.66
0.8242,-0.1489,-0.0557,25.183,-41.951,24.512,0.8394,100752.05
0.9893,-0.2271,-0.3057,17.378,23.171,-2.256,1.06,100752.34
1.1567,-0.2676,-0.0405,37.622,41.951,-2.805,1.188,100752.32
0.9688,-0.1763,-0.1138,-6.829,-1.951,-2.073,0.9912,100752.19
0.7925,-0.0146,-0.3247,-33.171,-20.61,1.951,0.8565,100752.1
0.7349,-0.0649,-0.4233,-15.305,-13.78,14.817,0.8506,100751.79
0.7959,-0.2471,-0.2632,5.305,-0.732,10.427,0.8739,100751.9
1.1538,-0.2998,-0.2344,-3.537,2.073,-21.28,1.2149,100752.23
1.1528,-0.2798,-0.1338,-0.854,-11.89,-9.39,1.1938,100752.36
1.0679,-0.3447,-0.0596,10.366,9.024,5.244,1.1237,100752.45
1.064,-0.3623,0.0088,9.39,28.171,2.683,1.124,100752.42
0.9946,-0.2686,-0.1206,-6.402,37.866,0.061,1.0373,100753.5
0.9624,-0.2241,-0.1064,-6.463,33.354,-9.207,0.9939,100753.21
0.6929,-0.1475,-0.1997,-15.488,16.951,-0.732,0.736,100752.38
0.8208,-0.1855,-0.2856,0.61,36.768,-13.11,0.8887,100752.12
1.0356,-0.3252,-0.2061,23.476,40.854,-5.976,1.1049,100752.66
0.8906,-0.3423,-0.1299,15.549,17.012,-5.122,0.9629,100752.57
1.0649,-0.3599,-0.1284,4.146,6.646,-33.476,1.1314,100752.15
1.062,-0.2104,-0.061,-0.061,-20.366,-16.28,1.0844,100751.96
0.7617,-0.0513,-0.0806,-0.427,-47.378,9.512,0.7677,100751.81
0.9521,-0.2305,-0.0742,28.354,-13.11,10.793,0.9825,100751.56
1.1997,-0.481,0.1064,46.768,17.317,26.89,1.2969,100751.52
0.9971,-0.228,0.2397,-1.402,-27.988,-7.317,1.0505,100752.11
1.0444,-0.0557,-0.2168,-35.488,-12.744,-29.329,1.0681,100752.43
1.1626,-0.0518,-0.0898,9.756,22.378,0.671,1.1672,100752.03
0.9741,-0.0186,-0.1562,-3.659,-2.439,22.439,0.9867,100751.62
0.7988,-0.0137,-0.3315,-19.146,-33.293,17.683,0.865,100752.05
0.7339,-0.1118,-0.2217,-4.939,-35.671,6.402,0.7747,100753.27
0.8091,-0.1943,-0.2148,-5.061,-17.256,-4.756,0.8594,100754.16
1.0825,-0.2715,-0.2056,2.012,-8.537,-9.451,1.1348,100754.33
0.999,-0.2798,0.0264,6.402,-16.037,0.61,1.0378,100754.11
1.1118,-0.3281,-0.0366,-9.817,6.098,-23.11,1.1598,100753.44
1.2749,-0.3179,-0.1182,-2.256,18.902,-22.317,1.3192,100753.18
1.2285,-0.2134,-0.1187,10.61,29.695,-10.0,1.2525,100753.59
1.0732,-0.1011,-0.1655,6.89,5.183,-4.634,1.0906,100753.55
0.6113,-0.0054,-0.2305,14.512,-3.598,16.768,0.6534,100753.38
0.6011,-0.0864,-0.1616,42.317,17.073,-1.28,0.6284,100754.12
0.7222,-0.2915,-0.0933,59.024,29.939,-11.341,0.7843,100753.96
0.7388,-0.4834,0.04,50.366,17.073,-20.671,0.8838,100753.7
1.0645,-0.3516,-0.0332,8.049,-1.159,-43.78,1.1215,100754.38
1.231,-0.1587,-0.4995,-7.622,-18.049,-7.622,1.3379,100753.41
0.7935,-0.3325,0.0576,61.646,-23.476,27.622,0.8622,100753.77
1.3286,-0.2041,0.2056,37.561,11.159,-12.195,1.3598,100754.79
1.6294,0.2695,0.0947,-1.585,-5.549,-34.268,1.6543,100754.7
1.3062,-0.0356,-0.0942,0.732,-5.854,-7.317,1.31,100754.65
0.7827,-0.2593,0.0938,16.707,10.0,33.598,0.8299,100755.45
0.7056,-0.0854,-0.0229,-40.427,-5.976,6.098,0.7111,100754.96
0.7607,0.0347,-0.3364,-64.695,-8.049,4.634,0.8325,100754.48
0.6118,-0.0264,-0.3086,-42.744,7.805,33.232,0.6857,100755.09
0.8525,0.0791,-0.5073,-40.244,4.634,3.476,0.9952,100755.07
1.3657,-0.0342,-0.334,2.622,-0.244,-15.183,1.4064,100756.02
1.1108,-0.1255,0.144,24.268,-1.159,33.354,1.1271,100756.38
1.104,-0.1304,0.2124,-20.488,-11.341,12.805,1.1318,100756.27
1.0293,-0.1055,0.125,-36.28,-26.707,-12.5,1.0422,100755.72
1.0317,-0.1665,0.103,-2.805,7.561,-12.561,1.0502,100755.66
1.0083,-0.1831,0.0962,21.768,30.366,-6.098,1.0293,100755.37
0.8667,-0.1152,-0.0098,16.707,28.963,-3.841,0.8744,100755.28
0.8721,-0.0518,-0.2144,10.671,35.793,-1.341,0.8995,100755.95
0.8633,-0.0464,-0.2456,19.451,36.037,-4.939,0.8987,100756.33
0.9326,-0.2124,-0.1729,22.622,30.122,-17.073,0.972,100756.24
0.9497,-0.2793,-0.0601,7.561,13.78,-28.232,0.9917,100756.45
1.1685,-0.2104,-0.1445,-8.841,-4.512,-39.207,1.196,100757.06
1.1655,-0.1724,-0.3438,6.22,-7.683,2.134,1.2273,100755.72
1.0996,-0.2466,0.4146,37.073,-7.744,51.037,1.2007,100754.68
0.8247,0.0098,-0.0269,-12.317,-27.988,40.976,0.8252,100754.42
0.9082,-0.0566,-0.0239,6.341,-23.476,-13.476,0.9103,100754.97
1.001,-0.2197,0.0659,17.622,25.366,-7.805,1.0269,100754.73
1.0283,-0.1377,-0.1279,-14.268,12.073,-12.866,1.0454,100754.08
0.8896,-0.0107,-0.3477,-30.915,-14.329,-8.72,0.9552,100754.09
0.709,-0.0991,-0.2773,-8.354,-18.537,-1.463,0.7677,100754.58
1.0024,-0.1401,-0.1172,-2.439,-1.89,-17.012,1.019,100754.47
1.248,-0.104,-0.0669,-18.537,-10.976,-16.22,1.2542,100755.96
1.1948,-0.0317,-0.0229,-40.244,-30.976,2.073,1.1955,100755.98
1.1665,0.0864,0.0117,-47.744,-35.366,8.415,1.1698,100754.89
1.0293,-0.0581,0.1567,-19.207,-17.622,6.89,1.0428,100755.06
0.772,-0.2383,0.209,7.195,24.573,17.073,0.8345,100754.59
0.8877,-0.2339,-0.1519,7.073,51.22,6.098,0.9305,100755.2
0.793,-0.1768,-0.1284,27.073,40.793,6.707,0.8225,100754.57
0.8701,-0.2188,-0.165,29.451,43.354,-0.061,0.9122,100755.21
1.1187,-0.2021,-0.1631,17.439,31.829,-11.951,1.1484,100754.81
0.917,-0.147,-0.2461,-11.646,0.183,-13.354,0.9607,100754.88
1.0146,-0.1631,-0.2104,-11.646,-3.476,-32.866,1.049,100754.55
1.2402,-0.1426,-0.2959,-5.427,-3.841,-28.598,1.283,100754.84
1.1045,-0.3359,-0.0435,21.768,-33.598,-5.671,1.1553,100755.4
1.0967,-0.2598,0.7085,39.878,-57.073,5.854,1.3312,100755.82
1.0029,-0.1797,0.2173,-13.841,-17.134,46.037,1.0418,100756.01
0.8853,0.0337,0.0977,-13.049,-15.915,20.549,0.8913,100756.65
0.9258,-0.0513,-0.0962,-6.524,9.817,-8.415,0.9322,100756.63
1.0444,-0.1357,-0.1929,-0.976,32.073,-3.232,1.0707,100756.41
0.8828,-0.0815,-0.3721,-10.976,3.598,12.683,0.9615,100755.45
0.8335,-0.0693,-0.3833,-5.244,-16.037,11.829,0.92,100755.51
0.6763,-0.1494,-0.2188,0.793,-15.854,13.537,0.7263,100756.27
1.0581,-0.04,-0.1494,-14.634,-5.305,-15.427,1.0694,100756.01
1.3506,0.0576,-0.0547,-30.732,-6.524,-6.22,1.3529,100756.02
1.1499,0.4004,-0.3608,-89.085,-30.976,24.878,1.27,100755.7
1.2446,-0.0752,-0.1421,-41.341,-60.0,-32.073,1.255,100754.94
0.8428,-0.4609,0.4473,77.134,18.598,36.768,1.0596,100754.64
0.7681,-0.314,0.5127,58.841,36.585,14.939,0.9754,100754.41
0.9326,-0.2266,-0.144,11.951,47.744,-7.439,0.9705,100754.48
0.8853,-0.2192,-0.0171,52.988,60.793,10.671,0.9122,100754.04
0.8296,-0.1562,-0.1543,34.817,43.72,0.122,0.8582,100754.58
0.9648,-0.2163,-0.0464,28.049,35.671,-19.573,0.9899,100754.62
0.8789,-0.2817,0.0225,3.232,42.195,-20.061,0.9232,100755.12
1.166,-0.1357,-0.2334,-38.049,26.098,-54.085,1.1969,100755.75
1.4067,-0.1519,-0.585,-29.512,12.561,-30.61,1.5311,100755.61
1.1001,-0.3223,-0.0029,39.146,-29.085,4.085,1.1463,100754.77
1.0298,-0.1064,0.7549,47.927,-52.683,-5.732,1.2813,100754.62
0.9741,0.0039,0.146,-25.061,-24.146,7.073,0.985,100754.73
1.0396,0.0142,0.1797,-10.854,-28.171,-22.744,1.0551,100755.09
0.936,-0.1494,0.1885,-6.951,-12.744,-21.951,0.9664,100754.99
0.8257,-0.1704,0.0557,-20.183,4.878,-21.341,0.8449,100755.52
1.1118,0.0034,-0.1509,-31.22,10.854,-22.195,1.122,100754.95
0.9404,0.0869,-0.292,-19.878,-8.78,14.146,0.9885,100755.03
0.958,0.0391,-0.2373,8.598,-7.927,33.415,0.9877,100755.18
0.9902,0.0112,-0.1152,23.841,-5.427,56.768,0.997,100755.79
0.9292,0.0156,0.0625,17.378,-17.012,48.598,0.9314,100755.89
0.9141,-0.0269,0.022,-3.476,6.037,38.476,0.9147,100755.84
1.0391,-0.0459,0.165,-19.268,-8.415,-17.866,1.0531,100756.16
0.9736,-0.1562,0.2788,-17.012,4.085,-31.585,1.0247,100756.55
1.0552,-0.1548,0.083,-9.695,43.78,-30.854,1.0697,100756.37
1.1562,-0.0146,-0.0239,-1.951,30.732,-40.122,1.1566,100756.08
1.0244,-0.0483,-0.0869,13.963,32.378,-17.195,1.0292,100755.98
0.8906,-0.2002,-0.0298,27.012,39.512,-1.28,0.9133,100755.7
0.9155,-0.1895,-0.1187,13.902,31.159,-10.122,0.9424,100754.96
0.8916,-0.1479,-0.1147,1.646,4.695,-25.061,0.911,100755.03
0.9756,-0.0869,-0.1216,-6.646,-13.659,-45.488,0.987,100755.2
1.3423,-0.2046,-0.0396,12.439,-1.22,-39.817,1.3584,100755.09
1.0767,-0.1597,0.3135,19.756,-19.39,19.939,1.1327,100754.54
1.0122,0.0825,0.228,-15.488,-40.732,22.439,1.0409,100755.2
0.9624,0.0664,0.1895,-3.232,-29.695,21.341,0.9831,100755.45
1.127,-0.0049,0.3433,9.451,-1.707,11.341,1.1781,100755.14
1.106,-0.1128,0.1733,-11.768,2.195,13.354,1.1251,100755.52
0.874,0.0107,-0.1572,-32.5,-11.159,21.524,0.8881,100755.23
0.9214,0.0322,-0.292,-13.232,-1.037,23.232,0.9671,100755.23
0.71,-0.0044,-0.2993,8.963,-0.488,37.5,0.7705,100755.48
0.9453,0.1538,-0.313,18.537,-2.622,13.841,1.0076,100756.18
1.292,-0.0093,-0.1035,43.11,-8.415,9.817,1.2962,100756.2
1.0278,-0.1143,0.3579,50.549,-13.415,45.488,1.0943,100755.73
0.9756,0.0913,-0.0054,-17.195,-14.634,37.5,0.9799,100756.0
1.0015,0.0391,0.0879,-27.134,-51.341,-3.049,1.0061,100755.94
0.9629,-0.1621,0.3794,6.524,-12.256,-6.524,1.0476,100755.67
1.1489,-0.3115,0.1567,4.512,25.061,-13.841,1.2007,100754.95
0.9771,-0.2051,0.0249,-6.707,9.146,0.305,0.9987,100755.05
0.772,-0.0645,-0.1636,-13.293,9.085,4.146,0.7917,100754.72
0.9497,-0.084,-0.1377,1.707,15.976,-15.183,0.9633,100755.24
0.8975,-0.2251,-0.001,9.634,20.793,-2.744,0.9253,100755.23
0.9185,-0.1533,-0.0127,-14.695,0.793,-24.024,0.9313,100755.26
0.9448,-0.0879,-0.0869,-21.037,-10.366,-40.244,0.9529,100754.79
1.1694,-0.1011,-0.1025,2.927,7.805,-28.72,1.1783,100755.26
1.0103,-0.1465,0.1245,28.659,2.988,6.402,1.0284,100755.04
1.1104,-0.1211,0.1826,19.024,5.488,12.5,1.1318,100755.84
1.0479,0.0601,0.1753,-0.732,-11.585,4.573,1.0641,100756.09
1.2393,-0.0244,0.043,-5.244,7.134,-5.122,1.2402,100755.55
0.8521,-0.0757,-0.0088,-8.598,-1.585,26.098,0.8555,100754.77
0.6841,0.0552,-0.1997,-23.293,-9.207,10.427,0.7148,100754.05
0.9863,0.0273,-0.3545,-4.268,21.646,-5.305,1.0485,100754.62
0.9873,-0.0684,-0.2144,16.89,10.427,5.122,1.0126,100753.82
1.0024,-0.1035,-0.0635,4.878,-12.378,-4.085,1.0098,100754.81
1.1636,-0.0952,-0.0156,-13.72,-20.976,0.0,1.1676,100755.56
1.0303,0.0718,0.0015,-24.146,-26.037,23.72,1.0328,100755.02
1.0728,-0.0015,0.0684,-18.78,-20.793,10.488,1.0749,100754.74
0.9746,-0.0879,0.2959,-4.268,-7.012,4.512,1.0223,100754.66
1.0269,-0.1372,0.0039,-5.793,21.829,-11.28,1.036,100755.34
1.022,-0.1719,0.0396,18.049,33.598,-7.805,1.0371,100755.73
0.9229,-0.1802,0.0371,15.549,32.317,-4.024,0.941,100755.64
0.8984,-0.1816,-0.0342,1.28,23.171,-15.427,0.9173,100755.46
0.938,-0.1938,-0.0625,1.89,29.146,-14.146,0.9598,100755.32
0.9712,-0.1719,0.0244,0.244,22.073,-19.634,0.9866,100755.7
1.0347,-0.1548,0.0488,-13.72,-1.22,-36.159,1.0473,100756.37
1.23,0.0073,-0.0996,-15.488,-6.585,-26.159,1.234,100756.51
1.0723,-0.0649,-0.1528,22.927,3.72,31.829,1.085,100756.58
1.0615,-0.0342,0.2349,-6.402,-10.0,-1.402,1.0877,100757.14
1.2964,-0.0225,0.1206,-30.244,-13.659,-25.366,1.3022,100756.45
1.0771,-0.0747,0.0454,-29.329,-21.22,7.683,1.0807,100756.05
0.832,-0.0049,-0.0542,-31.22,-35.488,13.72,0.8338,100756.05
0.895,-0.02,-0.1743,-14.695,-17.134,20.549,0.9121,100755.02
0.9019,-0.021,-0.1392,4.878,-4.085,43.537,0.9128,100755.72
0.729,-0.0273,-0.1572,0.793,-14.817,41.463,0.7463,100756.02
0.8833,-0.0259,-0.1558,-3.11,-18.841,17.988,0.8973,100755.98
1.0166,0.0449,-0.0747,-0.183,-25.244,17.134,1.0203,100755.95
1.0083,-0.0112,0.1128,2.195,-7.439,15.549,1.0147,100756.3
1.2935,-0.0952,0.3354,-6.159,-7.378,-32.317,1.3396,100755.6
1.2383,-0.124,0.1343,-11.585,13.293,-26.585,1.2517,100754.83
1.1006,-0.1099,-0.1025,8.11,19.329,0.366,1.1108,100755.23
0.8843,-0.1333,0.0508,32.683,16.098,17.073,0.8957,100755.65
0.8574,-0.1099,-0.0273,18.78,15.366,7.012,0.8649,100755.74
0.876,-0.1943,-0.1367,18.72,24.085,1.585,0.9076,100756.41
0.9019,-0.2896,-0.0845,25.244,31.89,5.61,0.951,100756.31
0.9536,-0.2183,-0.0591,4.939,3.902,-2.561,0.9801,100756.96
0.9561,-0.125,-0.1069,-0.671,-24.756,-13.354,0.9701,100757.08
1.126,-0.2241,0.0288,26.28,-19.329,-8.11,1.1484,100755.8
0.9756,-0.2031,0.0903,31.524,-22.622,20.976,1.0006,100756.04
1.1094,-0.1689,0.106,29.451,-11.829,17.927,1.1272,100755.75
1.0664,-0.0435,0.0923,7.622,-26.402,17.622,1.0713,100755.77
1.0132,-0.1602,0.0464,-2.561,-12.561,8.171,1.0268,100756.17
0.936,-0.1348,0.0718,-16.28,-4.146,3.171,0.9484,100756.3
0.8403,-0.0225,-0.1294,-39.024,-1.341,-10.671,0.8505,100756.04
0.9619,-0.0142,-0.3506,-38.963,5.122,-12.439,1.0239,100755.84
0.7749,-0.1426,-0.2046,-16.463,1.707,2.317,0.814,100755.59
0.7974,-0.0625,-0.1323,-34.329,-15.183,-24.451,0.8107,100755.35
1.1099,0.0737,-0.3862,-37.744,-10.671,-37.866,1.1775,100755.2
1.0532,-0.0269,-0.2002,6.463,8.232,10.244,1.0724,100754.72
1.2378,-0.0449,-0.0176,-2.378,-24.512,-11.463,1.2387,100754.98
1.0488,-0.1997,0.2451,23.11,-25.366,5.793,1.0954,100754.7
0.8257,-0.3638,0.3076,33.72,10.976,5.244,0.9533,100754.59
1.146,-0.3198,0.4307,21.707,34.939,-33.11,1.2653,100754.63
1.0391,-0.1636,0.2524,-23.293,39.939,-23.537,1.0817,100754.79
0.9048,0.0249,-0.1235,-48.902,35.732,-20.061,0.9135,100754.78
0.9619,-0.0176,-0.3193,-20.915,55.244,-7.439,1.0137,100754.91
0.979,-0.1885,-0.2183,14.756,60.793,2.622,1.0206,100755.36
0.9995,-0.1772,-0.0015,5.976,24.512,-21.402,1.0151,100755.56
1.1343,-0.1602,-0.0415,-16.646,-1.951,-36.037,1.1463,100755.87
1.2466,-0.1387,-0.1855,-8.232,-2.744,4.451,1.2679,100756.58
0.8618,-0.1855,0.1221,16.28,-30.671,47.256,0.89,100756.63
0.9126,-0.1411,0.2881,6.402,-25.61,31.402,0.9673,100756.4
1.2114,0.1465,0.0762,-23.415,-24.756,-6.341,1.2226,100756.0
1.3164,0.1094,-0.1606,-8.11,-17.439,-8.171,1.3307,100755.8
0.9458,-0.1387,0.1479,35.0,-5.61,26.098,0.9673,100755.55
0.7373,-0.082,-0.0273,-1.341,-17.927,19.085,0.7424,100755.32
0.7749,-0.0122,-0.2583,-14.573,-19.268,6.951,0.8169,100755.3
0.7446,-0.0938,-0.0854,0.488,-8.78,11.829,0.7554,100755.55
0.9092,-0.0664,-0.1006,-21.524,-13.232,-10.488,0.9171,100755.7
1.3179,-0.1055,-0.0864,-25.427,-10.305,-10.183,1.3249,100755.47
1.209,0.0396,-0.001,-36.22,-15.061,28.415,1.2096,100755.4
1.231,0.0332,-0.0181,-48.476,-46.098,-5.122,1.2315,100755.73
1.0586,-0.1714,0.1177,4.634,-13.902,15.366,1.0788,100756.37
1.1606,-0.2808,-0.0181,28.354,-6.646,9.817,1.1943,100755.8
0.6074,-0.2085,0.0083,19.939,-21.159,47.256,0.6423,100755.91
0.5586,-0.1655,-0.0898,7.195,0.244,25.976,0.5895,100755.25
0.7153,-0.1665,-0.0884,3.049,11.646,1.22,0.7398,100755.39
0.7227,-0.1504,-0.0405,-6.585,10.183,-17.012,0.7393,100755.38
0.9292,-0.1504,-0.1289,-10.549,13.78,-37.012,0.9501,100755.23
1.0771,-0.2422,0.0117,6.463,22.012,-28.841,1.1041,100755.13
1.3179,-0.1221,-0.085,-10.305,-3.354,-21.22,1.3262,100755.04
0.9819,0.0015,-0.1177,3.415,-34.512,11.585,0.989,100754.85
0.8672,-0.167,0.1436,49.268,2.805,20.305,0.8947,100754.59
1.144,-0.0259,0.2231,30.122,13.537,-14.695,1.1659,100755.51
1.2891,-0.0679,-0.0869,4.817,8.963,-18.598,1.2938,100755.33
0.9512,-0.146,0.0386,15.488,3.11,18.537,0.9631,100755.09
0.8813,-0.0371,-0.1738,-6.89,-10.122,5.549,0.8991,100754.52
0.9429,0.0327,-0.293,5.244,-2.012,9.878,0.9879,100755.09
0.936,-0.0542,-0.2617,29.695,6.098,17.866,0.9734,100755.77
1.1006,-0.0845,-0.1821,28.476,-10.549,7.805,1.1187,100755.79
1.0894,0.0596,-0.1714,18.902,-38.476,6.585,1.1044,100754.81
1.1387,-0.0742,-0.0239,46.22,-15.61,27.439,1.1413,100755.19
0.9849,-0.1592,0.2036,35.61,-13.049,38.232,1.0182,100755.48
0.9619,0.0669,-0.1353,-11.341,-47.134,4.817,0.9737,100756.07
0.8447,0.0005,-0.1021,50.488,-8.171,15.915,0.8509,100756.51
1.0444,-0.2524,0.1646,101.402,39.451,11.28,1.087,100756.12
1.0337,-0.1519,0.0239,66.524,11.646,14.695,1.0451,100756.06
0.7598,-0.0483,-0.1377,51.159,-7.683,19.756,0.7737,100755.89
0.752,-0.1509,0.0029,72.622,13.415,2.317,0.7669,100755.27
0.8784,-0.3037,0.1772,66.585,23.963,-26.341,0.9462,100754.93
1.0474,-0.2603,0.0601,26.28,7.561,-46.098,1.0809,100755.66
1.0977,-0.2397,-0.0259,19.024,-5.854,-41.646,1.1238,100754.01
1.2471,-0.0352,-0.104,28.171,-16.524,-20.854,1.2519,100754.48
1.0483,-0.0791,0.0859,63.537,-31.768,10.061,1.0548,100754.86
1.0635,-0.1401,0.2363,72.378,-9.085,35.671,1.0984,100755.23
1.0156,0.1924,-0.0547,29.939,-36.768,12.744,1.0351,100756.02
1.082,0.0713,-0.2939,54.329,-11.829,-1.28,1.1235,100756.0
1.0161,-0.2285,-0.0112,90.793,18.963,31.159,1.0416,100755.62
0.8657,-0.1074,-0.2212,31.89,-15.061,30.244,0.9,100755.46
0.8115,-0.0312,-0.4087,13.72,-16.524,11.707,0.9092,100756.44
0.9229,-0.1743,-0.2349,25.061,3.659,-0.976,0.9681,100756.19
1.3579,-0.1431,0.0283,-0.427,1.22,-19.207,1.3657,100757.48
1.2485,0.0425,-0.2314,-48.963,-33.659,-10.549,1.2705,100757.1
1.2012,-0.0352,-0.1113,-15.61,-27.927,-4.146,1.2068,100757.08
1.1382,-0.2095,0.3418,13.11,-36.524,1.28,1.2067,100756.06
0.937,-0.0811,0.166,-11.524,-36.707,-15.732,0.9551,100756.54
1.2021,-0.0649,-0.2139,10.915,-1.22,-19.085,1.2227,100756.42
0.8169,-0.0942,-0.0752,51.524,-2.439,29.39,0.8257,100755.69
0.6548,-0.0054,-0.1934,44.573,-11.402,21.037,0.6828,100756.5
0.8638,-0.0806,-0.248,66.402,16.463,6.159,0.9023,100756.02
0.8838,-0.3228,-0.0767,82.988,34.756,5.488,0.944,100756.39
1.0498,-0.3164,0.0015,40.976,16.524,-33.476,1.0965,100757.16
1.3345,-0.1357,-0.1641,-6.707,-31.768,-68.171,1.3514,100757.23
0.8584,-0.062,-0.2949,6.22,-64.207,-46.22,0.9098,100756.79
1.0254,-0.2861,0.2046,109.939,0.183,-2.439,1.084,100755.73
1.0688,-0.1177,0.2183,58.78,-12.744,-5.671,1.0972,100755.41
1.2256,0.1367,-0.3306,20.122,-30.366,-24.024,1.2767,100755.29
0.8345,-0.1626,0.0171,91.829,1.585,33.232,0.8503,100755.73
0.7041,-0.1914,0.0674,55.976,2.988,25.488,0.7328,100755.8
0.9155,-0.0464,-0.3081,6.768,10.61,-1.829,0.9671,100756.08
0.9766,-0.1484,-0.2881,15.671,34.451,8.415,1.0289,100755.95
1.1499,-0.1577,-0.2061,-14.634,9.39,-12.073,1.1788,100756.33
1.1338,-0.2236,-0.0845,-54.085,-29.207,-18.354,1.1587,100755.88
1.0288,-0.3564,-0.1069,-71.646,-6.89,6.28,1.094,100755.55
1.1689,0.1157,-0.1172,-98.78,-43.415,-17.988,1.1805,100755.05
0.9028,0.1948,-0.5122,-53.902,-66.768,-11.159,1.0561,100755.17
0.7944,-0.1948,-0.0137,90.488,23.049,24.939,0.8181,100756.71
1.0928,-0.3584,0.1865,89.939,43.598,12.927,1.1651,100756.91
0.6758,-0.1592,-0.1426,11.951,-1.707,20.915,0.7088,100756.45
0.7578,-0.0845,-0.4004,2.622,13.293,-11.22,0.8612,100755.99
1.1382,-0.1357,-0.2261,23.415,28.171,-19.268,1.1683,100755.88
0.9673,-0.1577,-0.1328,7.378,2.927,-8.049,0.989,100756.17
0.9009,-0.189,-0.1348,-9.146,-10.244,-30.915,0.9303,100756.39
1.0962,-0.1772,-0.2324,-2.256,-7.012,-47.805,1.1345,100756.41
1.124,-0.0498,-0.1313,37.561,-9.512,-29.024,1.1328,100755.84
1.0352,-0.332,-0.0342,84.268,18.963,17.927,1.0876,100756.16
0.9224,-0.1943,0.1045,60.488,5.61,37.134,0.9484,100755.38
1.0449,0.0386,-0.2729,12.988,-43.415,-19.329,1.0807,100755.66
1.1646,-0.1382,-0.0991,69.756,-2.866,11.829,1.1769,100755.77
0.7905,-0.1865,-0.0063,53.72,5.671,49.268,0.8123,100755.73
0.8857,-0.0303,-0.2754,-4.085,-14.085,8.11,0.9281,100756.55
0.9502,-0.123,-0.3022,-1.159,-3.841,11.22,1.0047,100756.91
0.9165,-0.251,-0.085,-6.402,-5.549,8.963,0.954,100756.95
1.0171,-0.1748,-0.1387,-54.39,-17.866,-29.512,1.0413,100757.2
1.2319,-0.0381,-0.3242,-69.207,-19.695,-31.646,1.2745,100756.8
0.96,-0.0083,-0.1729,-38.476,-30.427,-3.841,0.9754,100756.5
0.8657,-0.1348,-0.0493,8.232,-3.11,-3.902,0.8775,100756.41
1.0508,-0.3931,-0.0127,48.049,56.707,-10.122,1.122,100755.95
1.3916,-0.417,0.1138,31.829,42.256,-22.561,1.4572,100755.88
0.9043,-0.1973,-0.189,-15.0,-4.085,19.573,0.9447,100756.04
0.6816,-0.1299,-0.2466,3.11,11.463,24.634,0.7364,100755.44
0.8037,-0.2402,-0.1094,22.866,31.28,-5.61,0.8459,100755.11
0.8809,-0.2041,-0.0723,-12.622,12.561,-37.622,0.9071,100755.35
0.9121,-0.0654,-0.3794,-46.22,-4.329,-41.159,0.99,100755.65
1.1152,-0.1279,-0.3462,-7.988,-3.598,-26.463,1.1747,100755.52
1.1406,-0.1104,-0.1675,24.207,-30.0,-6.89,1.1581,100755.79
1.0352,-0.4209,0.0977,58.537,-22.073,32.256,1.1217,100755.4
0.7671,-0.1831,0.0918,20.427,-25.915,39.573,0.794,100755.94
0.9438,-0.0078,-0.3779,-5.671,-14.695,-11.89,1.0167,100756.36
1.127,-0.147,-0.1646,45.854,30.732,14.146,1.1483,100757.02
0.9629,-0.1782,-0.1064,23.11,10.732,29.451,0.985,100756.56
0.8213,-0.0459,-0.2749,-24.39,-21.341,14.878,0.8673,100756.45
1.0342,-0.0396,-0.395,-41.585,-29.756,7.5,1.1078,100755.75
1.1025,0.0439,-0.583,-52.988,-45.915,14.634,1.248,100756.21
0.7256,0.0244,-0.52,-41.463,-55.244,26.098,0.893,100755.34
1.1621,-0.2119,0.2183,21.402,-12.866,-37.622,1.2013,100754.53
1.0405,-0.397,-0.0181,12.5,19.634,2.5,1.1138,100754.71
0.8198,-0.3291,-0.1558,4.451,14.329,0.427,0.897,100754.8
0.8267,-0.3418,-0.1191,15.854,15.915,-13.598,0.9024,100754.9
0.7134,-0.376,-0.0986,20.671,31.098,-4.634,0.8124,100755.08
1.0044,-0.3359,-0.0664,19.573,45.854,-18.598,1.0612,100754.62
0.9658,-0.3398,-0.0312,10.61,37.988,-7.195,1.0243,100755.38
0.8579,-0.373,-0.0552,-6.341,30.854,-18.537,0.9371,100754.21
1.0884,-0.2554,-0.165,-23.72,20.854,-33.415,1.1301,100754.95
1.0854,-0.0649,-0.2949,-17.622,-0.122,-3.841,1.1267,100755.5
1.0796,-0.2783,-0.21,27.805,12.134,34.207,1.1345,100755.78
0.9961,-0.2217,0.0679,19.634,-9.512,46.28,1.0227,100756.84
1.0195,0.1431,-0.4341,-33.78,-44.878,-2.317,1.1173,100756.78
1.2354,-0.0024,-0.4419,38.171,-6.159,8.232,1.312,100756.38
0.9077,-0.2319,0.0146,62.134,-6.28,48.171,0.937,100756.21
0.7222,-0.0762,-0.2969,-16.402,-38.659,20.061,0.7845,100756.55
0.9014,0.0015,-0.5503,-21.341,-21.524,10.427,1.0561,100756.45
0.8428,-0.1763,-0.3135,10.0,-8.598,31.037,0.9163,100756.87
0.7344,-0.2856,-0.1528,-3.354,-21.829,7.5,0.8027,100756.8
1.1011,-0.3281,-0.2349,-40.732,-1.22,-21.159,1.1727,100756.65
1.2153,-0.2432,0.1528,-63.902,-28.11,-32.561,1.2488,100755.54
0.833,-0.3271,0.1411,-61.098,-22.012,-30.976,0.906,100756.06
0.7788,-0.1724,-0.2334,-19.085,13.78,31.402,0.8311,100756.93
0.917,-0.2935,-0.207,17.195,46.098,37.561,0.9848,100756.62
1.1138,-0.3813,-0.2217,10.671,46.707,42.134,1.1979,100756.25
0.9839,-0.3398,-0.2764,-18.476,30.305,38.78,1.077,100756.72
0.9766,-0.3096,-0.2515,-41.037,9.817,16.646,1.0549,100756.45
0.7847,-0.1108,-0.2788,-54.756,-38.415,-12.927,0.8401,100756.27
0.8184,-0.229,-0.3101,-19.451,-36.585,-12.988,0.9046,100756.61
0.9756,-0.353,-0.0352,20.427,-21.524,-2.927,1.0381,100756.86
0.9194,-0.3325,0.0024,21.159,-24.939,1.768,0.9777,100756.67
1.0532,-0.1807,-0.0698,10.732,-3.963,-14.329,1.0709,100756.53
1.5991,-0.146,-0.2349,37.805,15.305,-26.646,1.6229,100756.41
1.1621,-0.3018,0.0249,68.293,11.707,49.634,1.2009,100756.36
0.7339,-0.2915,-0.1323,27.5,-6.159,45.427,0.8007,100755.81
0.896,-0.1001,-0.1587,-9.329,-21.402,11.098,0.9154,100755.89
0.4502,-0.0259,-0.4106,-41.707,-22.439,27.988,0.6099,100755.95
0.6206,-0.1284,-0.188,-23.537,6.159,-7.439,0.661,100756.11
0.9697,-0.1626,-0.1675,-45.122,6.341,-27.317,0.9974,100755.52
0.9224,-0.1509,-0.1963,-56.341,-10.671,-26.646,0.955,100755.07
1.0635,-0.1323,-0.0327,-11.829,-6.89,-48.598,1.0722,100755.47
1.2188,-0.3115,0.0752,57.012,26.463,-58.11,1.2602,100756.61
1.1807,-0.5,0.2251,99.39,69.756,-30.915,1.3018,100756.62
0.9824,-0.4058,0.1802,54.207,32.134,-18.598,1.0781,100756.97
0.8003,-0.2695,-0.1689,5.366,28.11,-11.707,0.8612,100757.14
1.1948,-0.1914,-0.2104,16.159,23.72,16.524,1.2282,100756.59
0.9297,-0.2153,-0.125,9.268,0.061,12.561,0.9625,100756.87
0.9478,-0.2334,-0.1099,-9.268,-14.878,-15.183,0.9822,100756.57
0.9854,-0.0605,-0.2471,-23.049,-42.012,-29.146,1.0177,100756.45
0.9136,-0.1006,-0.3408,20.183,-36.768,9.756,0.9803,100755.9
0.9219,-0.2925,0.2661,74.024,-29.939,25.793,1.0031,100755.59
1.0156,-0.2158,0.1006,29.146,-42.317,7.195,1.0432,100755.38
1.1558,0.0928,-0.2627,10.427,-44.817,-13.902,1.1889,100754.7
0.9062,-0.459,0.2817,63.72,18.963,28.902,1.0542,100755.31
0.9302,-0.1099,-0.2163,-38.354,-18.72,-3.476,0.9613,100755.29
0.8066,0.041,-0.4058,-37.439,-18.598,7.622,0.9039,100754.77
0.7036,-0.1753,-0.1245,3.049,4.573,16.402,0.7357,100754.98
0.7271,-0.1792,0.0239,-25.0,-1.768,-2.744,0.7492,100754.54
0.8984,-0.0293,-0.1133,-64.024,-14.817,-25.0,0.906,100754.94
0.9062,0.1362,-0.2969,-73.659,-14.634,-7.683,0.9633,100755.88
1.0205,0.0264,-0.1348,-46.037,-27.805,-26.829,1.0297,100755.95
1.1108,-0.3022,0.2271,1.646,7.073,-26.463,1.1734,100756.13
1.3179,-0.2476,-0.1138,-7.561,57.5,-28.902,1.3457,100756.52
1.2529,-0.0068,-0.4053,-17.622,12.439,-17.256,1.3169,100756.08
0.7734,0.1001,-0.3892,11.646,10.122,18.659,0.8716,100755.74
1.1382,-0.1108,-0.2881,53.232,48.963,-2.134,1.1793,100755.85
1.0073,-0.2773,0.0161,57.744,30.976,19.939,1.0449,100754.43
0.8784,-0.3872,0.0947,13.293,-7.195,11.098,0.9646,100755.46
0.6719,-0.3169,0.0928,-27.5,-30.183,3.293,0.7486,100755.65
0.9985,-0.0591,-0.2246,-48.598,-14.268,-24.634,1.0252,100755.66
1.2344,0.0806,-0.4111,-22.561,-19.939,11.341,1.3035,100756.3
0.8735,-0.0146,-0.2388,14.146,-44.878,27.866,0.9057,100756.13
1.0967,-0.0884,-0.0259,51.402,-27.561,0.244,1.1005,100755.9
1.0269,-0.127,-0.0059,57.5,-15.854,-5.854,1.0347,100755.48
1.0659,-0.3418,-0.0391,55.305,23.171,0.915,1.1201,100754.67
1.1968,-0.2485,-0.1543,7.134,9.512,-7.866,1.232,100754.68
1.0737,-0.0581,-0.3442,-34.512,-25.183,4.024,1.1291,100755.44
0.6445,-0.0303,-0.4102,-30.305,-39.756,30.427,0.7646,100755.27
0.5522,-0.0928,-0.3101,-16.585,-30.976,16.22,0.6401,100755.13
0.8247,-0.1113,-0.2246,-30.305,-24.573,-9.878,0.862,100754.66
1.1328,-0.0562,-0.3062,-48.232,-27.256,-3.293,1.1748,100754.92
1.0762,-0.082,-0.2217,-32.744,-27.256,25.732,1.1018,100754.89
1.1763,-0.1411,-0.2002,-15.549,-30.061,-2.561,1.2015,100754.85
1.0957,-0.2393,-0.168,27.134,10.61,10.488,1.134,100755.2
1.0356,-0.377,-0.0283,53.78,46.341,23.232,1.1025,100755.44
0.769,-0.2397,-0.0532,20.976,23.476,17.988,0.8073,100754.66
0.73,-0.1748,-0.2271,-0.915,32.073,-6.585,0.7842,100754.07
0.8501,-0.2275,-0.207,8.841,56.402,-0.427,0.904,100755.59
0.7397,-0.1533,-0.1743,-5.732,40.305,-1.89,0.7753,100755.77
0.9561,-0.1797,-0.1802,-17.012,33.171,-29.451,0.9893,100756.48
0.9087,-0.249,-0.1357,-28.171,16.524,-38.171,0.9519,100756.91
1.1558,-0.1382,-0.4116,-47.134,-13.78,-48.598,1.2346,100756.37
1.0728,-0.0293,-0.1602,-6.037,-35.366,-0.061,1.085,100756.2
1.1909,-0.3188,-0.1714,25.793,-2.866,34.207,1.2447,100755.95
1.0186,-0.0508,-0.0698,8.598,-28.232,36.159,1.0222,100756.62
1.3687,-0.019,-0.5679,14.329,-8.171,-15.305,1.4819,100755.79
1.2939,-0.3496,0.1704,79.695,18.72,29.939,1.3511,100755.5
0.6758,-0.1157,-0.1201,-20.488,-40.793,36.707,0.6961,100756.17
0.7974,0.0781,-0.583,-48.293,-41.22,-4.39,0.9909,100755.92
0.7329,-0.0625,-0.3984,2.195,-15.488,22.012,0.8366,100755.74
0.6567,-0.1064,-0.2705,0.488,-15.61,11.22,0.7182,100755.34
1.0728,-0.1675,-0.3193,-10.366,-16.098,-16.89,1.1317,100755.81
0.9204,-0.21,-0.1045,-19.634,-16.951,25.976,0.9498,100755.41
0.8335,-0.0703,-0.1309,-63.049,-35.61,-0.732,0.8466,100755.22
1.228,-0.187,-0.4541,-23.476,6.402,-13.354,1.3226,100755.1
1.0469,-0.4131,-0.0552,47.195,56.646,21.89,1.1268,100754.77
1.1152,-0.3857,-0.165,3.841,40.366,-17.012,1.1915,100755.13
0.8213,-0.2402,-0.3037,-25.793,12.317,3.78,0.908,100755.52
0.687,-0.2471,-0.4351,-20.915,34.756,10.305,0.8499,100754.83
0.96,-0.2251,-0.3784,-10.061,36.951,-6.646,1.0561,100754.8
0.897,-0.1362,-0.2925,-7.683,16.707,-3.963,0.9532,100755.53
1.1675,-0.0889,-0.2397,16.28,16.829,-22.012,1.1952,100755.2
1.1807,-0.4204,-0.0684,47.012,10.0,-9.39,1.2551,100755.23
0.8306,-0.3022,0.1821,10.976,-36.22,14.146,0.9024,100755.1
0.6299,0.0093,-0.2622,-31.159,-52.805,-5.488,0.6823,100754.78
0.9961,-0.3047,-0.106,44.39,15.488,2.317,1.047,100754.88
0.6865,-0.1548,0.2563,28.476,-12.378,8.963,0.749,100755.22
0.9863,-0.126,-0.2231,0.671,3.11,-44.878,1.0191,100755.45
1.0225,-0.2944,0.1387,47.012,42.073,-10.671,1.073,100756.14
0.9282,0.04,-0.3857,-44.817,6.159,-19.329,1.006,100755.42
0.8105,0.0396,-0.5054,-26.159,10.305,6.829,0.956,100755.63
0.853,-0.082,-0.2856,-10.976,4.634,-1.829,0.9033,100755.4
1.2129,-0.1006,-0.2197,-34.207,-13.963,-28.232,1.2367,100754.98
1.1597,0.0088,-0.2114,-33.171,-30.549,-9.329,1.1788,100755.3
1.0308,-0.0029,-0.0474,7.439,-26.89,-16.341,1.0319,100755.64
1.0693,-0.1987,0.0278,42.012,34.207,-24.817,1.088,100755.81
1.3525,-0.1821,-0.1372,47.439,68.293,-31.829,1.3716,100755.44
1.0728,-0.0571,-0.1108,50.671,42.195,-0.366,1.08,100755.62
0.8633,-0.085,-0.1226,47.073,55.671,7.378,0.8761,100755.15
1.1226,-0.1211,-0.1343,40.427,65.061,-13.78,1.137,100756.27
1.0684,-0.1675,-0.0527,28.232,46.829,-8.354,1.0827,100756.24
0.8896,-0.2124,-0.1094,4.878,20.549,-19.512,0.9212,100755.5
1.3384,0.0015,-0.5767,-15.061,-7.012,-22.683,1.4573,100755.08
0.981,-0.0698,-0.1211,31.585,-52.439,41.098,0.9909,100755.59
0.563,-0.2476,0.6001,71.768,-66.951,28.354,0.8593,100755.5
0.9653,-0.3516,0.604,61.341,18.293,19.573,1.1918,100755.54
1.0098,0.1079,0.2061,-12.805,-0.305,7.134,1.0362,100755.7
1.1738,0.083,-0.3247,-28.537,11.28,-18.415,1.2207,100754.71
1.2959,-0.1787,-0.1064,16.159,38.415,0.427,1.3125,100755.19
1.1074,0.0474,-0.3281,-27.744,-27.012,5.366,1.156,100755.3
0.8799,0.0757,-0.377,-37.927,-46.524,14.39,0.9602,100754.79
0.6895,-0.1323,-0.2129,-20.732,-19.268,20.976,0.7336,100755.02
0.8345,-0.1401,-0.0381,-32.378,-22.256,-4.39,0.847,100754.58
1.0298,0.0366,-0.2012,-53.72,-32.195,-12.317,1.0499,100754.97
1.2158,-0.0757,-0.0986,-22.317,-18.841,24.268,1.2222,100754.79
0.9492,-0.0947,0.5234,-9.207,-45.671,43.598,1.0881,100755.88
0.8037,-0.1572,0.2744,-26.89,3.841,22.378,0.8637,100756.58
1.2173,-0.1602,-0.1265,5.366,95.244,-3.232,1.2343,100756.61
1.2983,-0.1089,-0.2285,28.841,65.61,9.817,1.3228,100756.39
0.6064,-0.1548,-0.1519,33.841,27.927,41.768,0.644,100755.86
0.7095,-0.1523,-0.1016,16.098,42.683,-7.378,0.7327,100755.96
1.1401,-0.1763,-0.062,-7.439,48.598,-44.756,1.1553,100756.39
0.9595,-0.1392,-0.0259,-35.305,26.463,-37.988,0.9699,100756.95
1.0703,-0.0181,-0.48,-55.183,14.268,-51.585,1.1731,100757.14
1.3384,-0.0806,-0.4233,-4.39,-3.354,-33.598,1.406,100757.55
1.1011,-0.1768,0.106,45.854,-52.561,15.061,1.1202,100756.6
0.8711,-0.2378,0.2617,54.573,-47.683,46.585,0.9401,100757.36
0.9038,-0.1616,0.1821,31.829,-52.378,22.378,0.936,100756.45
0.9839,0.0239,0.2041,20.305,-43.049,-14.329,1.0051,100756.62
1.166,-0.0796,-0.0024,26.829,10.854,-17.5,1.1687,100755.55
1.0884,0.0005,-0.0591,21.22,-4.329,-0.793,1.09,100754.85
0.8105,-0.0439,-0.0923,11.646,1.585,38.841,0.817,100754.95
0.646,-0.1299,-0.103,-20.061,2.988,20.488,0.6669,100755.02
1.0542,-0.0581,-0.1416,-55.183,-5.061,-28.537,1.0653,100755.07
1.147,0.0361,-0.2598,-69.268,-19.146,-6.829,1.1766,100754.5
0.8594,0.0977,-0.0645,-58.049,-44.817,13.537,0.8673,100753.69
0.9658,-0.0532,0.0215,-18.659,-22.744,-0.061,0.9675,100753.74
0.9961,-0.3657,0.2441,28.598,41.402,-5.671,1.0888,100754.12
1.3999,-0.2046,0.0029,-1.707,34.024,-35.976,1.4148,100754.02
1.0859,-0.0942,-0.1763,7.5,20.244,3.171,1.1042,100753.83
0.9004,-0.1875,0.0186,38.659,43.78,19.817,0.9199,100753.57
0.8735,-0.1592,0.0068,30.732,40.854,9.085,0.8879,100754.23
0.8062,-0.2529,0.0146,25.366,37.805,0.427,0.845,100755.81
0.8101,-0.2998,0.083,9.939,27.012,-13.659,0.8677,100756.4
0.9697,-0.1504,-0.0952,-19.634,-4.573,-34.207,0.9859,100755.98
1.0493,0.0532,-0.208,4.634,-13.537,-0.061,1.0711,100755.41
1.0352,-0.2075,0.1572,63.963,17.561,25.488,1.0674,100755.11
1.4473,-0.02,0.1641,27.195,-5.244,-3.841,1.4567,100754.77
1.3179,0.3252,-0.394,-0.61,-53.415,-18.171,1.4134,100755.01
1.1401,-0.1777,0.0332,101.341,8.415,15.0,1.1544,100754.3
0.8428,-0.3315,0.3145,71.098,-3.963,26.341,0.9587,100754.66
0.749,-0.0132,-0.1807,-21.524,-40.793,1.524,0.7706,100755.4
0.8008,-0.0234,-0.2534,-22.866,-24.39,6.22,0.8403,100754.84
0.6182,-0.0439,-0.1436,-23.537,-44.878,-4.207,0.6361,100754.79
0.8555,-0.0391,-0.1602,-22.988,-31.768,-25.549,0.8712,100754.38
0.9565,-0.1035,-0.0137,-17.317,-19.756,-6.402,0.9622,100754.94
0.9375,0.001,0.0342,-40.183,-30.427,0.732,0.9381,100755.96
1.0454,-0.105,0.2056,-37.195,-33.476,-8.415,1.0706,100756.72
0.9009,-0.168,0.1069,-32.866,-7.866,-7.195,0.9226,100756.2
1.3887,-0.1021,-0.2236,-13.476,29.207,-25.915,1.4103,100756.56
1.2637,-0.1665,-0.166,19.878,43.354,19.573,1.2854,100756.56
1.0269,-0.1108,-0.2656,7.866,24.939,29.268,1.0664,100756.59
0.9067,-0.0527,-0.2827,10.732,25.244,18.293,0.9513,100756.59
0.8809,-0.1089,-0.1621,27.683,44.939,1.585,0.9022,100756.94
1.0391,-0.3179,0.0928,28.537,40.793,-33.232,1.0906,100757.84
1.0757,-0.2339,0.0166,-11.341,-8.537,-44.878,1.1009,100757.28
0.999,0.0278,-0.2104,-22.012,-51.28,-28.415,1.0213,100756.87
0.8584,-0.0903,0.0127,36.951,-20.122,22.866,0.8632,100757.16
0.9351,-0.292,0.2627,47.012,17.073,43.659,1.0142,100757.49
0.917,0.0835,0.0103,-26.037,-29.329,-7.134,0.9208,100757.75
1.2769,0.0859,-0.2061,-18.049,0.305,-47.744,1.2962,100757.81
1.3291,-0.1514,0.0645,18.171,37.317,-9.085,1.3392,100758.11
1.0679,-0.0459,-0.0928,-27.5,-18.963,10.671,1.0729,100757.98
0.7178,0.0693,-0.2319,-46.341,-35.0,22.378,0.7575,100758.12
0.8477,0.0498,-0.2646,-35.732,-8.293,17.317,0.8894,100757.38
0.9277,0.105,-0.3193,-30.854,-2.256,31.768,0.9868,100757.64
1.0015,0.1519,-0.4082,-31.585,-18.415,31.951,1.0921,100757.61
1.1616,0.2769,-0.4111,-40.732,-39.146,40.366,1.2629,100757.45
0.8394,0.2603,-0.144,-41.402,-88.293,24.39,0.8905,100757.48
0.8477,-0.1846,0.0913,14.207,-36.707,-3.72,0.8723,100756.4
0.9282,-0.4229,0.3779,45.976,44.695,-5.061,1.0878,100756.2
1.2041,-0.2036,-0.0293,-19.39,31.22,-35.0,1.2215,100756.76
1.0552,-0.1221,-0.2612,-26.524,8.232,-13.537,1.0939,100755.24
0.7319,-0.2178,-0.1201,12.744,34.939,10.488,0.773,100754.23
1.0576,-0.2163,-0.0933,21.159,50.305,-20.732,1.0835,100754.45
0.9785,-0.2681,-0.0093,25.183,40.793,-12.439,1.0146,100754.25
0.6597,-0.4092,0.1802,16.768,27.012,-20.671,0.7969,100754.23
0.8638,-0.3184,0.0479,-26.524,10.061,-67.317,0.9218,100754.95
0.8813,-0.0898,-0.064,29.451,13.78,48.415,0.8882,100755.32
1.1001,-0.1001,0.0112,12.195,9.329,27.866,1.1047,100755.88
1.2124,0.2817,-0.2207,-28.171,-32.073,2.622,1.2641,100756.92
1.2158,0.0957,-0.2153,16.951,-7.195,8.659,1.2384,100757.71
1.2476,-0.1729,0.2314,41.829,16.037,12.927,1.2806,100756.7
1.208,-0.0034,-0.0806,-24.756,-13.598,5.122,1.2107,100756.31
0.9468,0.1343,-0.3896,-42.561,-28.841,24.085,1.0326,100757.12
0.6289,-0.02,-0.314,-11.585,-24.207,38.78,0.7032,100756.86
0.6646,-0.0962,-0.1553,-9.939,-27.012,16.585,0.6892,100756.66
1.0723,-0.0508,-0.2114,-28.659,-26.89,-13.354,1.0941,100757.27
1.0703,-0.0532,0.0679,-32.378,-42.378,7.683,1.0738,100757.58
0.7461,0.1636,0.0981,-67.012,-87.073,-4.573,0.7701,100756.7
0.8896,0.1128,-0.3306,-25.061,-8.537,-16.89,0.9558,100756.3
1.3203,-0.251,0.0933,64.39,71.707,-7.805,1.3472,100755.61
1.1514,-0.1729,0.1001,14.512,22.5,-10.61,1.1686,100755.48
0.9736,-0.0347,-0.2271,-17.317,21.89,-12.805,1.0004,100756.26
0.98,-0.0947,-0.1865,7.988,64.512,-3.11,1.0021,100755.84
1.0171,-0.0938,-0.1499,6.28,63.11,-16.037,1.0323,100755.66
1.0562,-0.2017,-0.1309,-7.073,37.012,-35.793,1.0832,100756.25
1.0405,-0.1353,-0.1846,-22.012,-5.366,-37.256,1.0654,100756.23
0.9971,-0.0781,-0.2871,-4.512,-25.183,-3.11,1.0405,100756.23
0.9917,-0.2476,0.2661,38.11,-17.927,46.768,1.0562,100755.71
0.9858,-0.2119,0.1187,2.988,-12.439,57.744,1.0153,100756.05
0.875,0.2568,-0.3521,-29.39,-52.866,18.963,0.9775,100757.55
0.9849,0.1523,-0.3423,45.732,-8.354,-18.659,1.0537,100756.82
1.3145,-0.2549,0.1631,103.11,55.427,-6.585,1.3488,100756.88
1.0801,-0.0464,-0.1504,14.939,-12.561,7.378,1.0915,100757.17
0.8101,0.0615,-0.3394,-6.89,-27.5,24.817,0.8804,100756.89
0.6562,-0.0933,-0.1826,2.744,-13.902,27.683,0.6875,100756.92
0.7515,-0.064,-0.0991,-30.366,-34.451,-12.439,0.7607,100757.69
1.001,-0.0918,-0.0088,-50.427,-36.89,-29.451,1.0052,100757.05
1.0576,0.0498,-0.0527,-66.524,-44.512,-1.22,1.0601,100756.59
1.0464,0.2954,-0.3389,-55.305,-63.049,10.0,1.1389,100756.7
0.9736,-0.0356,-0.147,42.866,-8.049,40.427,0.9853,100756.31
0.8018,-0.3838,0.1118,82.927,42.683,44.207,0.8959,100756.87
1.1367,-0.2612,-0.0762,32.073,30.122,-7.805,1.1688,100756.8
0.9575,-0.2148,-0.1685,3.72,30.732,-12.256,0.9957,100757.24
1.2041,-0.1841,-0.2959,-5.793,56.22,-40.732,1.2535,100757.57
1.4912,-0.2168,-0.2769,5.244,69.207,-46.159,1.5321,100757.8
1.1343,-0.3149,-0.0957,-1.524,51.402,-18.354,1.1811,100757.63
0.8125,-0.2417,-0.1001,-41.951,6.098,-27.744,0.8536,100757.39
0.9351,-0.0879,-0.1899,-60.61,-29.268,-40.183,0.9582,100756.95
0.7578,0.0659,-0.2236,-35.854,-40.488,13.049,0.7929,100757.35
1.0117,0.0063,-0.1807,24.329,-13.598,36.159,1.0277,100757.29
1.1069,-0.2568,0.1997,81.524,12.439,64.146,1.1538,100757.48
0.7627,0.0015,0.0493,32.561,-46.098,27.5,0.7643,100757.26
0.9766,-0.0435,-0.2036,52.256,-15.183,-21.341,0.9985,100756.82
1.0391,-0.2896,0.2925,90.244,37.622,0.366,1.1176,100756.51
0.9712,0.021,-0.105,-10.305,-4.268,-8.293,0.9771,100756.64
1.0151,0.0815,-0.5024,-38.659,-1.037,5.305,1.1356,100756.61
0.8496,-0.0938,-0.1909,-47.805,-14.512,7.439,0.8758,100756.71
1.2891,-0.1104,-0.1948,-61.159,-6.951,-15.793,1.3084,100757.16
1.0488,0.1865,-0.2993,-95.061,-70.61,5.976,1.1065,100757.01
0.8711,0.1255,-0.2212,-56.159,-85.732,7.256,0.9075,100757.5
0.8169,-0.2007,0.0127,23.78,-20.427,38.232,0.8413,100757.66
0.8398,-0.3228,0.0205,23.598,7.073,18.11,0.9,100757.26
1.1362,-0.3335,-0.1104,8.902,21.707,-11.829,1.1893,100756.35
0.9937,-0.3359,-0.0449,7.744,31.829,11.646,1.0499,100756.44
0.8613,-0.2241,-0.2339,-8.11,36.037,4.207,0.9202,100756.21
1.0527,-0.144,-0.3701,8.049,48.354,-18.293,1.1252,100755.57
0.9604,-0.2549,-0.1836,37.378,46.402,-6.524,1.0105,100756.07
0.6914,-0.3135,-0.0449,21.159,18.171,-17.012,0.7605,100755.81
0.9233,-0.1523,-0.2266,-7.134,-8.72,-55.244,0.9629,100756.49
0.9351,0.0122,-0.2129,15.427,-5.061,-23.78,0.9591,100755.89
0.9224,0.0249,-0.1353,45.732,4.756,-18.11,0.9326,100756.67
1.3506,-0.0884,0.1162,61.768,22.317,-10.793,1.3585,100756.41
1.1328,0.2368,-0.1733,13.841,-23.841,2.744,1.1702,100756.44
1.2417,0.0186,-0.2368,45.732,-11.159,-12.195,1.2642,100756.45
0.9058,-0.2109,0.1382,53.293,5.671,16.037,0.9402,100756.73
1.0469,0.0151,-0.1948,-17.927,-8.78,-15.488,1.065,100756.45
1.0703,0.1665,-0.4858,-31.646,-12.866,5.854,1.1872,100757.07
0.6499,-0.0386,-0.1709,-0.976,-25.183,29.756,0.6731,100757.2
0.5708,-0.125,0.0581,-18.659,-26.768,0.61,0.5872,100757.41
0.9995,-0.0576,-0.1924,-63.11,-15.122,-27.622,1.0195,100756.95
1.1201,0.0767,-0.2104,-73.963,-35.976,-11.707,1.1423,100755.74
1.188,0.1006,-0.1982,-38.232,-35.244,4.207,1.2086,100755.7
0.9297,-0.2158,-0.0342,29.451,29.695,36.768,0.955,100755.43
1.2422,-0.2124,-0.1196,18.537,35.61,-3.354,1.2659,100755.95
1.1396,-0.1533,-0.1714,6.22,14.024,14.451,1.1626,100756.34
0.7412,-0.1226,-0.1074,-1.768,17.988,35.549,0.7589,100756.39
1.0063,-0.1025,-0.3018,-15.122,35.488,-2.622,1.0556,100757.16
1.0703,-0.2344,-0.1958,-1.402,44.817,3.171,1.113,100756.52
0.854,-0.3115,-0.0176,-22.683,16.646,-5.244,0.9092,100756.4
0.8237,-0.1079,-0.1724,-66.037,-23.537,-46.768,0.8485,100756.92
1.0986,0.0425,-0.3779,-41.89,-16.829,-36.768,1.1626,100756.46
0.9126,0.0215,-0.2266,16.585,-5.244,23.171,0.9405,100756.73
0.9487,-0.1318,0.0527,40.976,-14.695,30.0,0.9593,100756.06
0.897,0.1743,-0.0757,14.939,-34.817,17.073,0.9169,100756.8
1.1982,0.1685,-0.2979,36.768,-8.171,-22.134,1.2461,100757.34
1.2622,-0.1772,0.1797,82.866,33.841,3.841,1.2872,100757.11
1.0029,-0.0908,0.0723,7.378,-2.073,0.61,1.0096,100755.87
0.9424,0.1851,-0.3516,-39.329,-22.195,-10.183,1.0227,100755.41
0.7725,0.125,-0.332,-4.695,-6.829,7.5,0.85,100755.22
0.8521,-0.0869,-0.1001,7.866,1.89,-1.463,0.8623,100755.91
0.9419,-0.0444,-0.1733,-30.0,-23.049,-12.5,0.9587,100756.16
1.0054,0.0244,-0.272,-31.524,-21.768,-2.561,1.0418,100756.76
1.0996,-0.0376,-0.1348,-0.427,-2.256,19.024,1.1085,100756.34
0.873,-0.0103,0.0732,1.768,-15.122,14.512,0.8762,100756.04
1.0337,-0.0547,-0.2617,5.549,25.061,-13.659,1.0677,100756.41
1.4263,-0.188,-0.124,50.854,55.061,-6.951,1.4439,100757.43
0.9985,-0.1875,-0.0806,37.927,19.085,31.585,1.0192,100757.59
0.7568,-0.146,-0.2188,18.476,13.11,23.902,0.8012,100756.73
0.854,-0.1777,-0.2783,26.829,29.024,0.0,0.9156,100757.41
0.8345,-0.2095,-0.1543,37.073,22.744,-6.89,0.8741,100757.19
0.8159,-0.314,0.0273,30.976,14.085,-16.707,0.8747,100756.66
1.0308,-0.2339,-0.1406,-4.756,6.402,-37.805,1.0663,100757.48
1.376,0.1328,-0.519,-20.183,-40.427,-29.329,1.4766,100756.63
0.9136,0.002,-0.0024,47.988,-53.293,30.854,0.9136,100756.01
1.0312,-0.207,0.2412,57.378,-15.671,38.72,1.0791,100756.12
1.0542,0.1724,-0.1455,-3.537,-45.61,-1.951,1.0781,100756.11
1.2305,-0.0566,-0.2837,36.037,5.488,-10.671,1.264,100756.1
1.0249,-0.2812,0.2134,45.244,20.122,18.659,1.084,100755.98
0.8887,0.1172,-0.3208,-51.524,-39.573,-3.78,0.952,100756.1
0.7666,0.188,-0.6104,-33.78,-24.512,9.451,0.9978,100756.21
0.7832,-0.0312,-0.4189,17.439,-2.256,17.988,0.8888,100756.52
0.7817,-0.0728,-0.2222,18.476,-18.049,13.537,0.8159,100756.39
0.9824,-0.0459,-0.2939,3.354,-20.915,-0.061,1.0265,100756.05
0.8828,-0.1582,0.1084,10.549,-22.683,8.598,0.9034,100756.78
0.9448,-0.0767,0.043,-27.988,-17.683,-15.122,0.9489,100756.23
1.0151,0.0024,-0.1113,-27.622,7.378,-32.317,1.0212,100756.8
1.1626,-0.0874,-0.1431,10.061,46.707,-39.39,1.1746,100756.76
1.1528,-0.1982,-0.0371,27.805,45.427,-22.134,1.1703,100756.2
0.8813,-0.1602,-0.0435,15.854,39.024,-1.402,0.8968,100756.15
1.042,-0.0977,-0.1885,10.915,59.085,-15.61,1.0634,100756.24
1.0332,-0.1831,-0.1387,23.841,68.72,-4.39,1.0584,100756.33
0.8359,-0.2349,0.0269,7.073,43.171,-1.768,0.8687,100756.73
0.8955,-0.1138,-0.1172,-32.378,13.537,-29.085,0.9103,100756.92
1.1963,-0.0459,-0.2588,-32.561,-0.671,-30.183,1.2248,100757.55
1.0093,0.0713,-0.1665,-6.341,-27.866,10.976,1.0254,100756.92
1.0693,-0.1602,0.0586,28.963,-9.634,30.915,1.0828,100757.05
0.9067,-0.0693,0.2754,1.524,-25.244,32.805,0.9502,100756.8
0.9976,0.2109,-0.3403,-48.11,-37.683,-25.061,1.0749,100757.43
1.3257,0.022,-0.2388,18.171,17.683,-22.134,1.3472,100757.31
1.1841,-0.0312,-0.0044,27.683,9.634,7.683,1.1845,100756.73
1.1738,0.0029,-0.2095,-0.61,-10.0,14.146,1.1924,100757.4
0.9194,0.0205,-0.188,-9.695,-11.037,30.183,0.9387,100758.0
0.9194,0.0806,-0.3096,-24.085,-27.134,32.561,0.9735,100757.12
0.6899,0.0312,-0.0962,-13.902,-26.28,40.305,0.6973,100756.6
0.8901,-0.0278,-0.0571,-23.171,-19.39,21.646,0.8924,100755.57
0.7368,-0.062,0.1748,-35.488,-27.805,16.524,0.7598,100755.3
0.8184,-0.0518,-0.0439,-48.659,-14.207,-21.951,0.8212,100755.32
1.1016,-0.0303,-0.2295,-17.744,31.707,-44.817,1.1256,100754.49
1.5308,-0.0776,-0.2188,21.463,40.976,-45.915,1.5483,100755.58
1.041,-0.103,-0.0825,32.622,13.598,16.159,1.0494,100756.3
0.9717,-0.0273,-0.2603,20.122,23.963,18.354,1.0063,100755.48
1.1587,-0.144,-0.2275,32.439,45.549,13.171,1.1896,100754.98
0.9194,-0.2148,-0.0073,16.098,14.268,6.159,0.9442,100755.7
0.8311,-0.1128,-0.1187,-23.963,-25.305,-26.89,0.847,100756.5
0.9116,-0.0688,-0.2148,-16.402,-28.902,-32.134,0.9391,100756.97
0.9268,-0.0215,-0.1821,30.305,-37.317,14.634,0.9447,100755.7
0.9585,-0.1543,0.0068,62.744,-21.037,33.049,0.9709,100755.5
0.7588,0.1084,-0.0576,33.354,-45.061,9.085,0.7687,100755.96
1.2739,-0.0273,-0.2856,51.524,7.012,-45.244,1.3058,100756.06
1.3203,-0.2842,0.2222,70.976,32.134,2.988,1.3687,100755.9
0.9297,-0.0195,-0.1348,-28.963,-32.378,17.195,0.9396,100755.53
0.6611,0.167,-0.4639,-46.402,-32.073,24.085,0.8247,100756.1
0.6152,-0.0146,-0.4131,-4.146,2.988,24.451,0.7412,100756.3
1.0645,-0.0327,-0.1948,-21.768,-14.024,-13.78,1.0826,100755.82
1.0771,-0.1172,-0.0298,-3.11,1.28,9.268,1.0839,100756.1
1.0581,-0.1616,0.0811,-8.232,6.402,9.451,1.0734,100756.17
1.0117,-0.0806,-0.1289,-30.427,11.28,-9.817,1.0231,100755.62
1.2344,-0.0684,-0.2285,-11.341,37.073,-24.024,1.2572,100755.69
1.0698,-0.127,-0.1416,9.512,37.805,-4.085,1.0866,100755.63
0.8403,-0.1372,-0.1099,6.707,34.451,0.488,0.8585,100755.57
0.8472,-0.0869,-0.2231,5.915,41.402,-11.037,0.8804,100755.41
0.9419,-0.105,-0.1792,28.171,47.622,-10.732,0.9645,100756.65
0.9058,-0.2725,0.0039,40.122,38.171,-2.927,0.9459,100757.44
0.9746,-0.2974,0.1133,11.22,15.427,-7.988,1.0252,100758.27
1.2764,0.0747,-0.2993,-32.378,-19.573,-1.829,1.3131,100757.93
0.9648,0.2974,-0.1855,-0.732,-54.268,35.366,1.0265,100758.27
1.0298,0.0845,-0.0312,51.951,-18.293,38.354,1.0337,100758.14
1.124,0.2778,0.125,38.841,-34.756,3.171,1.1646,100757.59
1.3574,0.1001,-0.2466,38.902,-6.159,-20.183,1.3833,100757.9
1.2866,-0.0723,0.1489,61.707,4.146,17.927,1.2972,100757.27
0.9741,0.2314,-0.2354,0.0,-42.012,19.024,1.0285,100756.44
0.895,0.2388,-0.3452,23.598,-12.805,27.012,0.9886,100756.76
0.8403,-0.0107,-0.1074,46.463,8.963,34.085,0.8472,100757.4
0.7671,-0.0576,-0.061,15.0,-15.671,25.488,0.7717,100757.52
0.7983,-0.0522,-0.0615,-5.061,-22.744,14.085,0.8024,100757.47
0.9331,0.0293,-0.0234,-20.122,-30.549,10.61,0.9339,100756.2
0.9429,0.126,-0.0791,-22.134,-42.439,2.012,0.9545,100755.39
1.0352,0.0845,-0.001,28.963,-2.622,-2.073,1.0386,100755.26
1.2085,-0.0103,-0.2212,67.683,32.012,-19.939,1.2286,100755.27
1.2886,-0.1128,-0.1055,104.512,32.012,-7.378,1.2978,100756.16
0.8418,-0.2305,0.0112,95.793,21.463,27.561,0.8728,100755.62
0.8813,-0.2241,-0.1504,56.829,22.012,-1.098,0.9217,100756.41
1.019,-0.2456,-0.1499,35.732,20.061,-11.646,1.0589,100756.9
0.8623,-0.146,-0.2085,8.659,-6.341,-15.0,0.8991,100757.02
0.9111,-0.1074,-0.2959,14.207,-20.549,-40.915,0.964,100756.73
1.0728,-0.1313,-0.1333,41.951,-27.866,-37.439,1.089,100756.41
1.0303,-0.0156,-0.1821,52.134,-49.878,-12.195,1.0464,100756.55
1.0547,-0.189,0.1426,94.817,-28.963,10.305,1.0809,100756.13
1.0752,0.0757,0.063,55.793,-49.207,-10.671,1.0797,100755.26
1.2612,0.2461,-0.3789,52.561,-39.756,-50.061,1.3397,100755.64
1.3447,-0.0835,0.1084,121.768,19.39,-8.72,1.3517,100755.81
1.1401,-0.1274,0.1416,61.829,-3.841,16.89,1.1559,100756.8
0.8638,0.1216,-0.3242,-10.244,-37.073,13.963,0.9306,100756.56
0.6846,0.0625,-0.396,12.134,-11.159,20.244,0.7933,100757.12
0.6636,-0.0854,-0.209,24.207,-1.951,2.927,0.7009,100756.7
0.8232,-0.0059,-0.2793,-1.098,-26.22,-28.902,0.8693,100756.26
1.0967,-0.0986,-0.3066,21.646,-17.927,-25.488,1.143,100755.55
1.1577,-0.1362,-0.0693,46.646,-19.39,-5.976,1.1678,100756.12
0.9854,-0.0508,-0.1372,51.402,-31.646,5.122,0.9962,100756.09
0.7646,-0.1797,-0.0947,81.524,7.561,15.549,0.7912,100756.16
0.9185,-0.2334,-0.0557,73.415,25.671,-23.537,0.9493,100755.97
1.0771,-0.1714,-0.1836,46.585,22.866,-51.463,1.106,100756.44
1.1035,-0.1372,-0.2217,40.793,32.5,-24.207,1.1339,100755.83
0.8823,-0.0596,-0.2383,40.976,22.927,-6.646,0.9159,100756.1
0.9551,-0.1909,-0.2632,59.695,42.622,-18.354,1.0089,100756.66
1.0547,-0.3799,0.0576,59.756,41.585,-19.695,1.1225,100757.08
1.1455,-0.2056,-0.0811,-12.439,-14.207,-52.744,1.1666,100757.41
1.2476,-0.0776,-0.3213,-24.329,-48.232,-35.549,1.2906,100757.52
0.7124,-0.0127,-0.0098,14.695,-52.622,31.159,0.7126,100756.63
0.8589,-0.1401,-0.1465,17.927,-22.744,11.098,0.8825,100755.7
0.9873,-0.0063,-0.0093,16.524,-10.061,9.939,0.9874,100755.62
1.0913,0.0278,-0.2271,6.28,-6.829,-18.049,1.115,100755.45
1.1284,-0.144,-0.0327,26.768,12.805,-1.22,1.138,100755.06
0.8242,-0.0479,-0.1445,-8.659,-9.939,19.268,0.8382,100755.01
0.8481,0.0513,-0.3965,-8.72,4.939,5.854,0.9376,100756.57
0.9741,-0.0205,-0.4092,27.866,28.963,4.024,1.0568,100756.9
1.0439,-0.1094,-0.2305,41.098,16.829,17.012,1.0747,100757.26
0.811,-0.0884,-0.1494,11.829,-13.78,22.5,0.8294,100756.3
1.0503,-0.2134,-0.2524,-7.805,-5.0,6.707,1.1011,100756.95
0.8325,-0.1055,-0.2476,-48.841,-35.366,15.366,0.8749,100756.09
0.917,-0.2754,-0.2417,31.22,46.646,8.841,0.9875,100755.91
1.3237,-0.292,-0.0449,54.146,56.524,-10.061,1.3563,100755.41
0.8564,-0.1919,-0.0986,25.61,24.451,25.793,0.8832,100755.52
0.7539,-0.105,-0.2661,10.793,29.268,12.683,0.8064,100755.12
0.9136,-0.1528,-0.2271,25.671,46.768,-2.927,0.9537,100755.32
0.7686,-0.3438,0.0078,22.683,43.902,-8.841,0.842,100754.96
0.8877,-0.1865,-0.2915,-34.573,20.549,-50.793,0.9528,100754.95
1.3843,0.1143,-0.8608,-45.732,-18.049,-83.171,1.6341,100754.45
1.2393,-0.0103,-0.1587,47.195,-65.854,-39.878,1.2494,100754.95
0.8672,-0.2783,0.3027,94.329,-47.134,17.805,0.9598,100755.16
0.7144,-0.3384,0.2754,55.244,-23.171,39.268,0.837,100756.09
0.8203,0.1138,-0.1758,-20.732,-62.744,-36.585,0.8466,100756.52
1.4009,0.0781,-0.2798,24.39,-11.89,-72.805,1.4307,100756.96
1.2559,-0.0898,0.1504,62.805,11.341,-9.756,1.268,100756.58
1.0088,0.0737,-0.1611,4.512,-28.11,0.0,1.0242,100757.26
0.8384,0.0923,-0.3389,9.573,-21.341,17.195,0.909,100757.05
0.6338,-0.1182,-0.1992,33.598,4.329,31.89,0.6748,100756.77
0.687,-0.1899,-0.1504,10.0,0.122,8.354,0.7285,100756.67
0.8608,-0.1133,-0.3374,-20.488,-14.817,-10.366,0.9315,100756.72
0.9043,-0.2495,-0.1797,7.073,9.329,13.415,0.9551,100755.79
1.0459,-0.2744,-0.0171,3.963,11.341,14.146,1.0814,100756.17
0.8525,-0.0698,-0.2227,-15.793,-7.927,15.61,0.8839,100756.0
1.0508,-0.2617,-0.0361,57.805,58.232,12.866,1.0835,100756.11
1.2012,-0.1802,-0.1045,21.22,45.976,-21.768,1.2191,100756.18
1.436,-0.0776,-0.3535,12.5,51.098,-42.073,1.4809,100756.48
1.23,-0.2632,-0.1421,46.22,54.146,-16.037,1.2658,100755.85
0.9219,-0.3218,-0.1143,24.695,10.366,-29.756,0.9831,100756.59
0.9277,-0.2471,-0.1445,5.488,-7.927,-40.549,0.9709,100756.17
1.0215,-0.1851,-0.1963,4.695,-15.305,-20.183,1.0565,100755.37
0.8008,-0.1611,-0.0864,21.28,-32.866,13.11,0.8214,100755.01
1.0923,-0.3828,0.0806,43.171,0.122,18.354,1.1602,100755.08
1.2554,-0.1162,0.1484,3.598,-22.561,16.951,1.2694,100756.25
1.3501,0.0186,-0.3271,-26.951,-36.951,-13.415,1.3893,100755.9
1.2544,-0.2598,0.064,24.268,-6.037,28.78,1.2826,100756.12
0.8911,0.0044,0.0381,-25.122,-42.988,47.256,0.8919,100756.29
0.7656,0.0757,-0.3931,-38.293,-32.866,51.22,0.864,100756.93
0.4819,-0.144,-0.1514,2.073,4.573,75.732,0.5253,100756.41
0.5874,-0.0425,-0.248,-27.256,-9.573,29.329,0.639,100755.64
0.8784,-0.2925,0.0962,-5.915,-6.463,37.378,0.9308,100755.56
0.6714,-0.2529,0.146,-39.695,-16.22,27.744,0.7322,100755.5
0.917,-0.1699,-0.0601,-58.537,-1.524,-28.72,0.9345,100755.34
0.9653,-0.125,-0.189,-30.488,43.354,-24.451,0.9916,100755.45
1.124,-0.1987,-0.083,12.622,75.915,-38.171,1.1445,100755.06
1.0483,-0.2109,-0.0723,13.902,52.317,-43.537,1.0718,100755.14
0.9229,-0.146,-0.1167,10.427,50.427,-35.305,0.9416,100756.41
1.1597,-0.1597,-0.0874,21.28,70.976,-44.268,1.1739,100756.38
1.1216,-0.1836,0.019,14.451,52.317,-38.841,1.1367,100756.71
0.9351,-0.1987,-0.022,-6.768,24.878,-29.756,0.9562,100756.85
1.0244,-0.144,-0.0923,-12.622,14.329,-35.915,1.0386,100756.84
1.311,-0.0161,-0.2944,-2.134,7.378,-22.683,1.3438,100756.49
0.9131,-0.1528,0.1558,37.622,-7.866,24.512,0.9388,100755.82
1.1079,-0.2588,0.1836,25.488,4.695,24.756,1.1525,100756.04
0.999,0.0869,0.1445,-5.976,-30.549,25.976,1.0132,100756.72
1.0635,0.2178,-0.2822,-12.012,-33.476,-9.207,1.1216,100757.23
1.1924,-0.1108,0.0288,54.573,8.78,-0.671,1.1979,100757.0
1.0918,-0.1865,0.2168,31.098,-3.72,5.122,1.1286,100756.95
1.2197,-0.0913,-0.1143,-19.695,-15.061,1.159,1.2285,100756.41
0.75,-0.0718,-0.0376,-24.085,-22.622,26.463,0.7544,100756.72
0.5264,-0.0093,-0.2427,-51.829,-46.22,7.988,0.5797,100756.1
0.7759,-0.043,-0.0605,-26.037,-0.793,-2.866,0.7794,100756.6
1.1992,0.1396,-0.2202,-43.171,-17.317,-16.585,1.2272,100756.27
0.9756,0.1445,-0.0303,-33.232,-49.085,17.622,0.9867,100756.37
0.6655,0.0181,0.0625,-12.805,-23.659,26.829,0.6687,100755.95
1.0601,-0.0605,-0.2002,5.671,30.0,-17.439,1.0805,100756.99
1.4258,-0.103,-0.0625,35.244,32.561,-35.427,1.4309,100756.68
1.1387,-0.0981,-0.0317,36.341,11.524,-16.159,1.1433,100757.28
0.9785,-0.1206,0.0664,47.317,35.366,-5.976,0.9882,100756.52
1.0811,-0.1216,0.0327,37.195,50.183,-24.268,1.0884,100755.94
1.1118,-0.1699,0.0229,21.524,42.927,-31.829,1.125,100757.34
0.9009,-0.2383,0.0757,2.317,18.902,-26.341,0.9349,100757.05
0.8994,-0.2271,0.0332,-20.976,-5.732,-46.829,0.9282,100756.48
1.1182,-0.0605,-0.1084,11.341,-13.963,5.183,1.125,100756.15
1.0815,-0.2393,0.0732,44.268,4.39,49.695,1.1101,100756.04
1.0269,0.0337,0.0513,11.524,-36.89,54.024,1.0287,100755.96
0.9077,0.1548,-0.2061,2.683,-51.402,22.561,0.9436,100756.64
1.1489,-0.353,0.1753,51.89,20.122,26.098,1.2147,100756.38
0.939,-0.2197,0.2603,-23.232,-23.354,35.915,0.9988,100756.44
0.769,0.1655,-0.2856,-93.841,-57.5,23.171,0.8369,100755.62
0.8555,0.1221,-0.4121,-44.634,-14.39,36.585,0.9574,100755.51
0.8413,-0.0298,-0.1353,-1.646,-5.976,50.122,0.8526,100755.3
0.7754,-0.0747,0.0249,-19.329,-18.354,35.0,0.7794,100755.88
1.1113,-0.146,-0.0308,-46.098,-10.305,6.037,1.1213,100755.95
0.9878,0.0591,0.0034,-67.134,-24.512,16.768,0.9896,100755.51
0.9805,0.02,-0.2305,-52.683,-10.732,-7.012,1.0074,100755.05
1.1729,-0.2456,0.0342,12.988,49.634,-16.037,1.1988,100754.71
1.6177,-0.2515,-0.0015,2.012,43.659,-41.463,1.6371,100754.7
1.0962,-0.0942,-0.1489,-19.878,-2.195,14.878,1.1103,100755.16
0.6616,-0.0874,-0.1509,-13.293,5.305,41.341,0.6842,100754.44
0.7778,-0.0596,-0.1646,-8.902,25.488,13.78,0.7973,100754.02
0.9624,-0.0947,-0.1216,-3.232,24.268,-10.549,0.9747,100754.32
0.8179,-0.1855,-0.0405,-2.256,13.841,-6.585,0.8396,100754.05
0.8994,-0.0894,-0.2168,-8.78,-2.317,-26.524,0.9295,100755.07
1.2036,-0.0371,-0.3179,11.28,-29.756,-28.659,1.2454,100755.34
0.9492,-0.0581,-0.0303,49.756,-42.683,24.756,0.9515,100756.05
0.9912,-0.3604,0.0952,63.293,-14.817,37.561,1.059,100755.73
0.7725,-0.1396,0.1416,25.366,-33.598,37.134,0.7977,100756.58
0.7832,0.0107,-0.2173,4.939,-19.207,-13.537,0.8129,100756.47
1.2026,-0.3013,0.1235,57.073,54.329,-17.988,1.2459,100756.55
0.9702,-0.2617,0.1636,-0.427,25.793,-1.707,1.0181,100757.08
0.8418,0.0664,-0.3389,-67.439,-14.878,-16.463,0.9099,100756.25
0.9443,0.084,-0.4712,-33.902,0.122,-4.451,1.0587,100755.64
0.9624,-0.0835,-0.1846,4.085,4.268,12.866,0.9835,100756.16
0.8794,-0.1294,-0.1562,-13.537,-12.744,5.244,0.9025,100755.78
1.2393,-0.271,-0.1201,-20.0,-4.207,-9.329,1.2742,100755.78
1.1665,0.0229,-0.1147,-51.829,-47.744,-11.098,1.1724,100755.76
1.0596,0.0537,-0.1455,-28.171,-42.256,-7.744,1.0709,100755.98
0.9009,-0.3354,0.0737,29.268,37.378,22.439,0.9641,100756.05
1.1299,-0.2739,0.0342,-5.915,25.976,-18.841,1.1631,100755.84
1.166,-0.1006,-0.271,-31.22,8.171,-18.78,1.2013,100755.79
1.0132,-0.1528,-0.2021,4.817,32.378,15.244,1.0444,100755.91
1.0283,-0.2026,-0.2085,15.732,34.329,11.585,1.0686,100755.74
0.9004,-0.2285,-0.1577,14.146,14.207,9.817,0.9422,100756.0
0.729,-0.2881,-0.105,3.841,-2.378,0.061,0.7909,100755.31
0.9058,-0.2075,-0.1431,-12.744,-22.683,-31.098,0.9402,100756.15
1.1279,-0.0801,-0.2422,-4.573,-38.598,-18.476,1.1564,100756.04
1.0435,-0.2646,-0.0127,38.354,-25.915,20.549,1.0766,100755.84
1.1343,-0.272,0.1484,24.756,-21.829,19.085,1.1758,100755.55
1.1152,0.1182,-0.2773,-22.622,-34.512,-1.951,1.1553,100755.58
1.3716,-0.1924,-0.2593,35.793,14.573,2.012,1.4091,100755.62
0.8184,-0.3447,0.2607,34.146,-3.841,46.22,0.9255,100756.64
1.1616,-0.1978,-0.0278,-2.622,-3.11,13.78,1.1787,100755.51
0.9238,-0.0435,-0.1807,-28.78,-39.146,3.293,0.9423,100754.71
0.6978,-0.0488,-0.2729,3.354,-12.317,2.561,0.7508,100754.98
0.9941,-0.2407,-0.125,50.427,38.11,-24.512,1.0305,100755.05
1.1831,-0.3193,-0.1206,47.195,37.195,-38.659,1.2314,100754.98
1.0776,-0.3022,-0.1172,38.72,26.829,-22.439,1.1253,100754.67
0.9229,-0.2407,-0.1055,33.11,24.512,-3.841,0.9595,100754.59
0.8555,-0.2627,-0.1079,31.707,31.402,-1.28,0.9014,100754.26
0.8975,-0.3945,-0.0503,25.305,32.622,-10.671,0.9816,100755.38
1.0293,-0.3203,-0.1338,-8.11,3.476,-30.732,1.0863,100756.23
1.1221,-0.1748,-0.3271,-17.439,-31.463,-21.951,1.1818,100755.88
0.7354,-0.1792,-0.0737,19.146,-31.646,20.915,0.7605,100756.95
0.9937,-0.3267,-0.1182,32.134,17.744,-7.683,1.0526,100756.16
1.6196,-0.1484,-0.0654,25.854,31.098,-39.39,1.6277,100755.19
1.4058,-0.0532,-0.1602,9.512,-7.622,-22.866,1.4159,100755.3
0.7886,-0.1201,-0.0508,17.5,-22.195,12.439,0.7993,100755.63
0.6196,-0.123,-0.1226,5.122,-15.976,5.976,0.6435,100755.52
0.6748,-0.0337,-0.2515,-6.524,-4.512,0.976,0.7209,100755.41
0.769,-0.1396,-0.2119,-2.378,17.5,7.134,0.8098,100755.47
1.2393,-0.0391,-0.292,-51.28,-32.5,-34.451,1.2738,100755.52
0.979,0.1011,-0.1445,-82.866,-57.622,3.476,0.9948,100757.69
0.8604,-0.0327,-0.4297,-20.976,18.293,22.012,0.9622,100757.8
1.0869,-0.2246,-0.043,40.122,54.512,16.037,1.1107,100757.15
0.9731,-0.1987,-0.1572,14.146,20.244,23.293,1.0056,100756.77
0.8271,-0.2446,-0.1826,16.646,19.207,35.366,0.8817,100757.11
0.8257,-0.3096,-0.1318,19.329,23.415,19.695,0.8916,100756.26
0.9277,-0.29,-0.1704,1.037,5.61,-28.171,0.9868,100756.48
1.2451,-0.1675,-0.3774,-16.585,-11.646,-44.573,1.3118,100756.03
1.0566,-0.1138,-0.4927,1.829,-23.78,10.305,1.1714,100757.03
0.8677,-0.0747,-0.1904,27.317,-42.683,17.805,0.8915,100756.81
1.0439,-0.1504,-0.0244,32.561,-37.683,0.854,1.055,100756.88
0.8735,-0.1504,0.0898,27.866,-12.134,21.951,0.8909,100755.98
0.9673,-0.0874,-0.1372,-0.122,0.305,-19.817,0.9809,100756.27
0.9863,-0.1831,-0.083,12.134,16.341,-18.902,1.0066,100755.51
0.8481,-0.1592,-0.147,3.049,10.488,-6.89,0.8754,100755.67
0.8931,-0.0464,-0.2285,0.244,12.073,7.256,0.923,100755.66
0.6401,-0.0352,-0.1909,3.537,22.683,24.878,0.6689,100755.77
0.8271,-0.1191,-0.2139,-10.061,40.976,3.78,0.8626,100756.36
1.0508,0.0332,-0.1362,-48.11,0.61,-24.939,1.0601,100756.68
1.1069,0.0083,-0.1978,-59.39,-12.683,-17.744,1.1245,100756.05
1.04,-0.04,0.0093,-38.476,7.988,3.72,1.0409,100756.45
1.1641,-0.063,-0.1201,-41.646,-12.134,-30.61,1.1719,100756.49
1.0518,-0.2378,-0.0547,6.829,33.476,-13.232,1.0797,100756.78
1.231,-0.2388,-0.0713,22.805,50.0,-24.39,1.2559,100756.88
1.1123,-0.1118,-0.1387,18.902,22.988,-11.707,1.1265,100757.19
0.8691,-0.1621,-0.0776,31.159,35.854,16.89,0.8875,100757.07
0.8794,-0.1748,-0.0186,20.183,42.439,10.427,0.8968,100755.88
0.8955,-0.1182,-0.0317,-7.378,31.768,-17.744,0.9038,100756.2
1.1206,-0.1323,-0.1323,-25.488,29.024,-42.622,1.1361,100756.2
1.2559,0.0327,-0.3232,-31.22,-1.28,-35.122,1.2972,100756.3
1.0811,-0.1396,-0.1987,7.134,-20.488,2.622,1.108,100755.78
0.8325,-0.1748,0.3623,1.037,-57.256,19.146,0.9246,100755.99
0.731,-0.0112,-0.1147,-42.988,-47.378,15.671,0.74,100756.05
0.9907,0.1172,-0.0234,-12.744,-17.378,-11.22,0.9979,100755.68
1.2334,0.125,-0.0215,0.183,-18.902,-47.744,1.2399,100755.92
1.2163,-0.1069,0.1094,21.463,6.098,-16.098,1.2259,100755.72
1.2119,0.0625,-0.144,-6.707,-20.244,2.866,1.222,100754.96
1.0376,0.1226,-0.2075,0.61,-43.72,39.878,1.0652,100755.62
0.6714,0.1641,-0.1333,1.89,-40.61,66.098,0.7039,100755.49
0.7637,0.3008,-0.4434,-21.159,-40.427,23.232,0.9329,100755.28
0.9692,0.0649,-0.3755,14.756,-27.317,-2.561,1.0415,100755.11
0.9668,-0.2466,0.0991,45.427,-7.012,19.146,1.0027,100754.64
0.896,-0.1328,0.0713,-5.793,-20.732,-2.927,0.9086,100755.12
1.1343,0.0054,-0.1738,-18.78,-9.878,-36.341,1.1475,100754.98
1.1909,0.0073,-0.1885,24.207,31.037,-27.378,1.2058,100755.02
1.3291,-0.0996,-0.1099,53.049,41.829,-17.683,1.3373,100754.2
0.8525,-0.1484,-0.1118,46.89,12.5,34.512,0.8726,100754.69
0.5972,-0.1763,-0.084,35.488,9.817,45.732,0.6283,100754.44
0.835,-0.3062,-0.1177,12.805,38.963,13.049,0.8971,100755.41
0.833,-0.3228,0.0396,-20.671,22.317,-9.451,0.8942,100755.48
1.0923,-0.0342,-0.29,-69.207,-4.817,-45.976,1.1307,100755.16
1.3408,-0.0332,-0.4033,-37.5,-7.317,-26.707,1.4006,100756.03
1.1655,-0.0493,-0.1968,12.317,-17.683,18.293,1.1831,100755.95
1.0718,-0.1616,-0.0249,43.598,-23.659,13.598,1.0842,100755.28
1.0718,-0.1431,0.1636,47.927,-7.134,10.427,1.0936,100755.6
1.126,-0.0854,-0.084,20.305,-0.854,-13.902,1.1323,100755.87
0.9648,-0.1431,-0.1553,16.646,-4.085,9.756,0.9877,100755.45
0.5483,-0.125,-0.1357,1.28,-22.927,45.793,0.5786,100754.88
0.4604,-0.0366,-0.2344,-20.915,-25.305,34.024,0.518,100754.47
0.6636,-0.0596,-0.3408,-21.768,5.61,15.0,0.7484,100755.0
1.0347,-0.2573,-0.2622,-19.939,14.451,-2.317,1.098,100755.41
1.2974,-0.0801,-0.2021,-50.549,-25.183,-15.488,1.3155,100755.84
1.4395,0.1255,-0.4355,-44.634,-36.646,-2.5,1.5091,100756.02
1.2217,-0.1069,0.0073,12.927,-10.854,51.037,1.2264,100755.8
0.8975,-0.1245,0.0874,-30.854,-36.098,33.171,0.9103,100755.89
0.9155,-0.0991,-0.4111,-53.049,-12.5,-1.037,1.0085,100756.57
0.9214,-0.2891,-0.2275,8.232,32.622,0.976,0.9921,100757.2
0.8364,-0.3003,-0.1963,4.878,17.805,-14.756,0.9101,100757.41
0.874,-0.2568,-0.2568,2.5,21.28,-11.463,0.9465,100756.98
0.8657,-0.2407,-0.165,10.183,30.244,-1.646,0.9136,100758.0
0.8667,-0.2676,-0.2246,4.817,34.207,-11.768,0.9345,100757.53
0.8774,-0.271,-0.2783,-2.622,21.951,-26.098,0.9596,100757.3
1.0425,-0.4019,-0.1895,14.573,-6.159,-21.768,1.1332,100756.79
1.105,-0.2407,-0.2266,-4.695,-29.573,-13.598,1.1534,100756.12
1.2974,-0.0952,-0.1621,11.524,-30.793,-11.524,1.3109,100756.11
1.1162,0.0503,0.0371,29.695,-15.793,12.439,1.118,100755.99
1.2534,-0.0942,0.0137,31.341,12.988,-17.561,1.257,100755.66
1.208,-0.3003,0.127,12.988,15.366,4.39,1.2512,100755.16
0.7393,-0.084,-0.0649,-58.537,-39.878,37.927,0.7468,100755.76
0.5605,0.2363,-0.3813,-85.671,-57.256,41.28,0.718,100755.01
0.5684,0.1665,-0.5044,-36.829,-17.378,38.72,0.7779,100754.92
0.6885,-0.0425,-0.2729,11.037,20.976,23.232,0.7418,100755.34
0.9473,-0.0024,-0.3252,-3.659,12.988,-5.488,1.0015,100756.02
1.145,0.0635,-0.2466,4.146,-2.134,-5.732,1.173,100756.05
0.8149,-0.0933,-0.0786,25.793,21.098,15.366,0.824,100756.46
1.2163,-0.23,0.0439,22.866,51.707,-43.841,1.2386,100756.49
1.3628,-0.1357,-0.1455,-7.988,33.232,-63.049,1.3772,100755.54
0.9858,-0.1162,-0.2817,11.22,26.768,-30.976,1.0319,100755.91
0.7427,-0.2495,-0.1167,55.427,49.878,-12.134,0.7921,100756.34
0.8447,-0.2456,-0.0674,50.61,57.317,-14.573,0.8823,100756.4
1.1069,-0.1865,-0.1514,28.415,48.415,-13.11,1.1327,100756.34
1.0425,-0.2378,0.0103,23.659,37.622,15.549,1.0693,100757.02
0.9785,-0.3711,0.0171,-5.244,25.915,5.366,1.0467,100757.17
1.2217,-0.2754,-0.083,-45.732,-11.707,-32.683,1.2551,100756.8
1.0703,-0.1343,-0.1377,-51.463,-46.037,-21.28,1.0875,100757.27
1.0596,-0.04,-0.1504,-27.073,-23.902,-2.073,1.0709,100756.87
1.187,0.2021,0.0015,24.329,-38.171,43.11,1.2041,100756.39
1.103,0.103,-0.0112,32.5,-22.866,19.695,1.1079,100755.47
0.9653,-0.2358,0.1167,39.451,-3.72,29.756,1.0006,100756.25
0.4995,-0.1636,0.1294,-22.134,-53.11,44.512,0.5413,100756.72
0.2681,0.1885,-0.1968,-82.5,-76.341,26.524,0.3822,100756.3
0.624,-0.0703,-0.2432,-1.341,25.976,-15.305,0.6734,100755.77
0.8887,0.0303,-0.3062,-26.037,22.378,-46.707,0.9404,100756.09
1.4946,0.0957,-0.3086,-36.646,5.976,-68.11,1.5292,100755.6
1.3022,0.0825,-0.1523,-31.646,-27.927,-28.598,1.3137,100755.37
1.3125,-0.1162,-0.1968,-5.244,8.415,-4.817,1.3322,100755.45
1.269,-0.1719,0.0576,11.524,9.817,-0.061,1.2819,100755.62
1.0776,0.0,-0.2686,-9.756,4.878,3.293,1.1106,100756.0
1.0981,-0.0283,-0.2905,30.61,29.024,12.622,1.1363,100756.27
1.0503,-0.1597,-0.1255,55.61,35.244,37.439,1.0697,100756.59
0.7993,-0.0864,-0.1387,34.573,7.256,52.988,0.8158,100756.35
0.7207,-0.1157,-0.1587,29.756,10.183,43.537,0.747,100756.65
0.7852,-0.2822,-0.0601,26.829,18.11,19.634,0.8365,100756.17
0.811,-0.1948,-0.0522,-9.634,-8.354,-14.878,0.8357,100756.14
1.0586,-0.1914,-0.2822,-25.427,-15.488,-39.329,1.1122,100756.62
1.1401,-0.1689,-0.0576,-0.061,-24.085,-2.073,1.154,100757.1
1.1128,-0.0874,-0.1924,-5.549,-22.622,1.524,1.1327,100756.48
1.5322,-0.0181,-0.1797,24.329,-4.024,-10.732,1.5428,100756.03
1.2227,0.0303,-0.1338,50.183,-7.439,14.817,1.2303,100756.19
1.0591,-0.231,0.0752,60.427,5.671,21.28,1.0866,100757.13
0.4946,-0.1929,0.0439,-3.963,-29.329,35.976,0.5327,100757.25
0.416,0.0693,-0.3052,-57.988,-46.22,-2.805,0.5206,100756.84
0.7241,0.0625,-0.4248,-26.22,-13.841,-12.195,0.8419,100754.95
0.5811,-0.144,-0.1973,9.268,1.646,9.146,0.6303,100755.38
0.5859,-0.1113,-0.2783,-16.159,-7.622,-14.451,0.6582,100755.95
1.1289,-0.0444,-0.499,-16.707,-0.549,-42.561,1.2351,100756.12
1.2563,-0.2686,-0.1133,26.463,19.573,-1.707,1.2897,100756.11
0.9341,-0.145,0.001,-15.0,-12.927,-10.183,0.9453,100755.12
1.1357,0.0254,-0.1758,-27.927,0.976,-52.317,1.1495,100755.02
1.3857,-0.1016,-0.0308,20.244,70.244,-35.366,1.3898,100755.55
1.4653,-0.1519,0.0259,13.78,59.207,-13.049,1.4734,100755.21
1.0498,-0.0347,-0.1626,-13.476,19.085,25.122,1.0629,100755.34
0.8989,-0.0088,-0.2104,-4.39,23.232,46.22,0.9233,100755.79
0.835,-0.0425,-0.1519,9.146,32.805,58.171,0.8497,100755.49
0.8066,-0.1646,-0.106,5.915,31.402,39.329,0.83,100755.41
0.8232,-0.228,-0.084,-9.634,10.671,-6.402,0.8584,100755.47
1.1885,-0.2407,-0.2031,-20.732,-4.817,-43.415,1.2295,100755.52
1.2598,-0.1377,-0.1362,-8.537,-33.598,-10.488,1.2746,100755.66
0.7979,-0.0894,-0.2368,2.195,-52.256,19.573,0.837,100757.01
0.9795,-0.0405,-0.1704,31.341,-22.561,5.366,0.995,100756.95
0.9238,0.0728,-0.0977,36.89,-16.402,-10.061,0.9318,100756.86
1.228,-0.2002,-0.0342,50.732,21.89,-33.841,1.2447,100756.55
1.1401,-0.2256,0.1211,16.646,-0.976,5.732,1.1685,100757.55
0.7456,0.1221,-0.2041,-53.11,-63.293,23.598,0.7826,100756.96
0.7612,0.1987,-0.4536,-35.793,-39.512,25.549,0.9081,100756.25
0.8774,0.0039,-0.3433,20.305,-4.634,37.012,0.9422,100756.35
0.9136,-0.0957,-0.2158,34.329,-5.0,35.793,0.9436,100756.68
1.1772,-0.2085,-0.189,29.39,-3.049,22.073,1.2104,100757.04
0.9702,-0.2271,0.0239,10.183,-25.793,42.012,0.9967,100756.82
0.7192,-0.2324,-0.0811,-31.829,-35.0,18.049,0.7602,100757.02
0.9443,-0.2139,-0.1377,-38.659,-6.402,-24.085,0.978,100756.42
1.1147,-0.1685,-0.2822,-25.671,25.854,-40.488,1.1622,100756.23
1.2441,-0.1611,-0.1553,5.305,33.659,-35.427,1.2641,100756.46
0.9648,-0.1484,-0.1475,13.78,29.512,-6.037,0.9873,100756.63
1.0732,-0.0723,-0.1621,18.232,31.829,-13.72,1.0878,100757.12
0.9868,-0.1465,-0.1426,33.841,31.341,2.683,1.0078,100756.88
0.7085,-0.4307,0.1152,37.256,39.329,15.61,0.8371,100756.95
0.8911,-0.2139,-0.0386,-33.659,1.28,-37.073,0.9172,100756.08
1.2471,-0.0156,-0.6074,-61.463,-28.78,-43.902,1.3872,100756.09
0.9194,0.042,-0.3384,11.89,-37.805,50.244,0.9806,100755.98
0.7114,0.0464,-0.207,31.646,-36.463,43.659,0.7424,100756.87
1.1187,-0.2422,-0.1714,54.939,-3.598,11.28,1.1573,100757.29
1.0132,-0.1641,0.228,37.683,-15.793,-1.524,1.0514,100756.99
1.1865,-0.2412,-0.1436,-7.439,4.451,-45.549,1.2193,100757.41
1.0513,-0.1909,-0.0054,-16.402,5.976,-18.902,1.0685,100756.84
0.7915,0.0869,-0.3281,-58.232,-16.341,-3.963,0.8612,100756.66
0.7832,0.1904,-0.5576,-32.927,-11.341,7.5,0.9801,100756.77
0.7183,-0.0664,-0.3091,35.183,18.598,29.512,0.7848,100756.12
0.8984,-0.2227,-0.083,36.159,35.671,5.732,0.9293,100755.28
1.3052,-0.04,-0.1597,-0.793,15.244,-21.037,1.3155,100754.89
1.1152,-0.0737,-0.04,18.841,15.183,27.988,1.1184,100755.56
0.9971,-0.1685,0.1606,14.756,17.561,25.305,1.0239,100755.34
1.0029,-0.0337,-0.0249,-19.939,13.232,-20.915,1.0038,100755.41
1.3335,-0.1362,-0.1348,4.878,57.622,-48.11,1.3472,100755.35
1.2236,-0.2002,0.0166,17.317,41.28,-14.817,1.24,100755.07
0.7637,-0.1416,-0.0894,-5.122,7.195,14.573,0.7818,100754.97
0.7461,-0.0923,-0.1182,-7.378,12.073,9.939,0.761,100754.53
0.8301,-0.0972,-0.1265,1.707,27.439,11.402,0.8453,100754.09
0.9688,-0.3218,0.0264,10.427,28.72,7.134,1.0211,100755.1
0.9746,-0.3325,0.0571,-24.207,-13.232,-18.293,1.0314,100755.73
1.1309,-0.186,-0.1465,-54.878,-34.39,-41.524,1.1554,100756.72
1.1201,0.042,-0.3452,-45.976,-51.951,-30.793,1.1729,100756.45
1.1006,0.231,-0.4512,-1.159,-71.341,-13.841,1.2117,100755.88
0.9751,0.0293,-0.0908,75.0,-57.073,29.634,0.9798,100755.45
0.6353,0.0713,0.2002,81.28,-44.939,27.317,0.6699,100756.5
1.1177,0.0425,-0.1724,54.207,4.817,-41.037,1.1317,100755.91
1.4731,-0.3301,0.0996,73.598,43.659,-17.317,1.513,100755.84
0.9302,-0.1729,0.0098,-11.646,-34.207,24.634,0.9462,100755.19
0.5879,0.1924,-0.4653,-66.037,-70.366,25.671,0.7741,100755.8
0.73,0.1611,-0.5181,-24.695,-27.439,16.341,0.9095,100755.66
1.0186,0.0469,-0.2979,1.829,-23.598,-5.488,1.0622,100756.26
1.0742,-0.0474,-0.4185,-0.122,-35.0,-8.354,1.1538,100756.72
1.2153,-0.2251,-0.0444,32.866,-15.244,9.695,1.2368,100755.97
0.9248,-0.1055,-0.0693,-2.256,-35.244,10.427,0.9334,100756.76
0.8613,-0.0454,-0.3169,4.817,-7.561,-17.683,0.9189,100756.48
1.126,-0.2612,-0.1445,60.793,54.024,-23.11,1.1649,100756.91
1.0391,-0.3608,-0.0396,50.122,43.841,-2.744,1.1006,100756.47
0.5957,-0.2627,-0.1719,9.39,17.988,18.537,0.6734,100756.77
0.6626,-0.1831,-0.3101,-7.317,35.488,1.341,0.7541,100756.76
1.0684,-0.1304,-0.3906,-4.817,45.732,-13.049,1.145,100757.72
0.9575,-0.1924,-0.2456,1.22,28.78,9.39,1.0071,100757.23
0.8145,-0.1436,-0.209,-18.78,6.037,-0.244,0.853,100757.33
0.9473,-0.0146,-0.3799,-30.427,-18.049,-35.671,1.0207,100756.67
1.1675,0.0024,-0.4668,3.659,-18.11,-24.146,1.2573,100755.83
1.1147,0.0732,-0.3203,44.451,-37.622,0.732,1.1622,100755.78
1.1245,-0.0806,-0.1719,86.037,-22.012,3.476,1.1404,100755.24
1.0981,-0.1602,0.1309,35.183,-1.098,-19.695,1.1175,100755.85
0.9414,-0.25,0.0518,-6.646,8.049,-15.976,0.9754,100755.68
0.7227,-0.019,-0.2598,-53.171,-8.415,-4.756,0.7682,100755.55
0.7632,0.0864,-0.5386,-39.512,-5.183,-8.11,0.9381,100756.34
0.7178,-0.0703,-0.4639,16.402,15.732,13.598,0.8575,100756.31
0.6807,-0.1997,-0.2832,31.646,28.476,10.732,0.7638,100755.78
1.0381,-0.1304,-0.3711,5.305,14.207,-30.793,1.1101,100755.88
1.2993,-0.147,-0.2593,13.78,3.11,-12.195,1.3331,100756.2
1.0981,-0.1968,0.0283,4.085,-9.939,22.073,1.116,100756.06
1.1992,-0.1704,-0.0801,-37.073,-22.5,-11.89,1.2139,100756.34
1.0996,-0.0889,-0.1543,-43.049,-6.707,-8.902,1.1139,100756.17
1.1479,-0.0908,-0.2192,-29.085,13.963,-12.622,1.1722,100756.17
0.8711,-0.1602,-0.2109,-8.415,16.89,17.5,0.9105,100755.43
0.6655,-0.1904,-0.1548,0.915,25.0,26.037,0.7093,100755.62
0.8784,-0.1406,-0.1963,-1.402,33.78,8.659,0.911,100755.62
0.811,-0.248,-0.0625,9.085,49.268,23.72,0.8504,100755.3
0.8242,-0.2842,0.1343,-10.671,51.829,-1.524,0.8821,100755.88
1.1577,-0.1401,-0.1748,-51.402,41.28,-37.927,1.1792,100756.32
1.3291,0.0176,-0.3896,-39.39,23.476,-16.646,1.3852,100756.29
1.0923,0.0981,-0.3296,-0.122,-23.293,21.341,1.1451,100756.38
1.0137,-0.1919,0.0503,46.28,-25.61,31.28,1.0329,100756.09
1.0908,-0.1528,0.3203,23.841,-29.085,29.695,1.1471,100756.12
1.0249,0.0977,0.021,-30.671,-39.329,2.5,1.0298,100756.51
0.9854,-0.0415,-0.0679,-19.024,-6.829,-8.293,0.9886,100756.78
0.7588,-0.1826,0.0381,-19.695,2.805,5.305,0.7814,100756.4
0.6743,0.0342,-0.1826,-57.988,-17.683,-12.988,0.6994,100756.12
0.8672,0.0845,-0.4585,-47.134,-1.524,-19.085,0.9846,100755.44
0.9629,-0.0107,-0.3516,-9.878,10.793,2.378,1.0251,100756.36
1.1177,0.02,-0.3276,-7.805,-12.317,4.39,1.1649,100756.46
1.2837,0.0146,-0.2891,10.549,-20.244,13.72,1.3159,100756.41
1.106,-0.2031,-0.0049,43.171,-12.744,55.305,1.1245,100756.97
0.8579,-0.4487,0.2012,20.854,0.366,60.671,0.9889,100756.3
0.9829,-0.2422,0.0264,-40.976,-31.28,8.902,1.0127,100756.15
0.7583,-0.1401,-0.3208,-27.561,-4.451,10.854,0.8352,100756.89
0.9556,-0.2959,-0.0801,34.939,44.939,-10.488,1.0035,100756.98
0.9741,-0.3184,0.0054,32.134,42.561,-15.61,1.0248,100756.67
0.8877,-0.1797,-0.1216,10.183,39.939,-22.622,0.9138,100755.96
1.1006,-0.2397,-0.1099,16.951,61.28,-38.659,1.1317,100756.15
0.9858,-0.3423,0.0679,2.5,45.244,-27.866,1.0458,100755.67
0.8237,-0.0635,-0.1255,-51.707,-8.354,-43.293,0.8356,100756.07
1.0903,0.0488,-0.4282,-36.707,-9.817,-49.512,1.1724,100755.73
1.1636,-0.1846,-0.0459,36.707,10.427,7.195,1.179,100756.34
0.9644,-0.1172,-0.0469,21.89,-23.963,20.122,0.9726,100756.42
1.3564,-0.2627,-0.0991,46.89,-2.988,12.073,1.3852,100756.37
0.9702,-0.2065,0.2656,53.902,-12.988,58.049,1.0269,100755.98
0.7666,-0.0532,-0.0762,2.744,-26.402,2.439,0.7722,100756.16
1.2012,-0.1729,-0.0659,15.976,11.159,-27.317,1.2153,100755.09
0.8833,-0.0869,0.0552,-5.915,-10.305,14.512,0.8893,100754.76
0.8481,0.0474,-0.2031,-44.634,-26.463,-2.927,0.8734,100754.88
0.9316,0.0356,-0.2925,-26.037,-11.768,2.988,0.9771,100754.35
0.855,-0.0586,-0.2129,-5.549,-7.439,16.585,0.883,100755.07
0.9854,-0.0522,-0.1328,-10.976,-19.268,12.744,0.9956,100755.72
1.1157,-0.0449,-0.0625,-16.098,-24.207,20.854,1.1184,100755.85
0.9722,-0.0645,0.0884,-25.305,-21.098,35.976,0.9783,100755.68
1.0073,-0.0342,-0.0488,-49.451,-15.427,4.268,1.0091,100755.71
1.0552,-0.0493,-0.1665,-29.451,18.72,-16.159,1.0694,100755.61
1.2202,-0.1069,-0.1538,9.512,43.659,-28.171,1.2345,100756.38
1.0493,-0.1606,-0.1367,29.085,33.232,-12.988,1.0703,100755.97
0.7686,-0.1997,-0.1001,36.707,28.78,11.159,0.8004,100756.04
0.7158,-0.1665,-0.104,27.866,29.756,11.646,0.7423,100755.6
0.7847,-0.1895,-0.0815,17.927,30.549,1.524,0.8113,100755.88
0.8833,-0.4116,-0.0791,13.476,46.89,-12.378,0.9777,100755.85
1.0845,-0.4141,0.0493,-7.134,35.427,-32.927,1.1619,100756.09
1.2192,-0.1348,-0.1675,-42.988,-8.11,-39.634,1.238,100757.23
1.1699,-0.2109,0.063,26.341,-25.0,29.573,1.1905,100756.51
0.9858,-0.061,0.0166,2.622,-41.098,25.915,0.9879,100756.43
1.0947,-0.1201,-0.085,3.598,-22.195,-2.195,1.1046,100756.15
0.8628,-0.2095,0.0791,5.305,-17.683,15.488,0.8914,100755.67
0.6475,-0.103,-0.0132,-32.012,-35.366,1.768,0.6557,100755.45
0.7798,-0.0449,-0.2119,-42.256,-18.659,-14.695,0.8093,100755.64
0.7285,-0.0908,-0.187,-22.744,-1.707,0.0,0.7576,100755.54
0.7886,-0.0669,-0.1846,-22.927,-9.878,-4.207,0.8126,100755.98
0.8335,0.0674,-0.229,-25.976,-15.915,4.695,0.867,100756.41
1.1787,-0.0078,-0.2925,-11.159,3.78,10.976,1.2145,100756.36
1.1748,-0.1338,0.1899,-12.439,-15.366,24.878,1.1976,100756.59
0.9102,-0.126,0.0747,-77.683,-39.024,-7.012,0.9219,100757.0
1.1562,-0.1509,-0.2808,-79.39,15.305,-33.72,1.1994,100757.28
1.3979,-0.0874,-0.2891,-45.122,23.11,-31.829,1.4302,100757.66
1.0098,-0.0781,-0.333,-17.805,16.402,8.476,1.0661,100757.8
0.9214,-0.0718,-0.2661,14.207,34.878,11.524,0.9617,100757.91
1.0532,-0.1162,-0.2192,32.866,49.817,3.72,1.0821,100757.6
0.9639,-0.2666,-0.1021,38.293,44.39,0.854,1.0053,100757.77
0.9189,-0.3418,0.0122,13.476,18.963,-20.732,0.9805,100758.0
1.0127,-0.1255,-0.1831,-28.78,-23.963,-46.89,1.0367,100757.92
1.2222,0.0576,-0.3159,-7.439,-36.707,-22.317,1.2637,100757.23
0.9702,-0.0161,-0.106,45.793,-23.232,36.341,0.9761,100756.84
1.0312,-0.1011,0.0439,49.39,-18.354,37.683,1.0371,100756.21
1.0801,0.0171,-0.2915,25.915,-7.805,-13.049,1.1189,100756.13
1.0913,-0.2466,0.0933,56.159,11.463,8.171,1.1227,100755.9
0.7251,-0.0659,-0.0386,-12.5,-30.671,16.524,0.7291,100755.24
0.729,0.1104,-0.3774,-42.012,-28.78,0.122,0.8283,100755.86
0.8799,0.0811,-0.4395,-7.683,-7.439,0.732,0.9869,100756.3
0.8149,0.0024,-0.333,18.963,-10.854,10.0,0.8804,100756.66
0.9756,-0.0493,-0.2163,24.756,-9.512,0.61,1.0005,100757.16
1.1284,-0.0854,0.0024,20.183,-9.817,2.317,1.1317,100756.69
0.9653,-0.1807,0.0659,-6.707,1.28,5.244,0.9843,100757.07
1.2886,-0.1157,-0.0122,-35.366,20.0,-20.61,1.2938,100756.48
1.0986,-0.0615,-0.2705,-44.39,21.89,-10.366,1.1331,100757.02
1.0049,-0.0781,-0.2632,-10.488,20.183,-14.695,1.0417,100756.72
0.8008,-0.1685,-0.1245,18.415,27.378,3.537,0.8277,100755.98
0.8477,-0.187,-0.0562,15.671,35.122,-5.183,0.8699,100756.4
0.9849,-0.1387,-0.1221,1.341,36.28,-9.329,1.002,100756.37
0.9243,-0.1348,-0.0981,7.378,34.878,-3.598,0.9392,100756.36
1.1641,-0.2085,-0.0024,-21.402,5.122,-28.841,1.1826,100757.3
1.1606,0.1719,-0.2812,-49.451,-50.61,-19.817,1.2065,100756.9
0.9536,0.0884,-0.2173,14.573,-35.549,17.988,0.982,100756.38
0.9897,-0.2461,0.1309,73.476,13.78,43.598,1.0282,100756.6
0.9038,0.0791,0.2446,20.793,-12.988,14.817,0.9397,100756.77
1.1914,0.0767,-0.2954,-23.841,11.037,-38.902,1.2299,100756.29
1.2139,-0.1274,-0.0796,15.183,30.244,1.22,1.2231,100755.8
0.7915,0.0415,-0.104,-27.012,-22.439,29.268,0.7994,100755.66
0.835,0.147,-0.4116,-45.549,-25.427,16.098,0.9424,100755.94
0.8301,0.0122,-0.2607,-9.085,3.72,34.878,0.8702,100756.03
0.6948,0.1313,-0.2822,-19.878,-6.159,22.927,0.7614,100756.45
1.1729,0.1157,-0.3799,-2.012,-18.415,-24.512,1.2383,100756.42
1.0332,-0.1641,0.1787,57.317,-5.305,25.061,1.0613,100757.24
0.8433,-0.2349,0.2646,12.195,3.537,23.232,0.9145,100756.77
0.8687,-0.1455,0.0664,-35.244,-0.549,-17.073,0.8833,100756.89
0.9155,-0.0649,-0.1895,-29.939,35.854,-35.671,0.9372,100756.36
1.3525,-0.0991,-0.1523,9.939,54.085,-56.707,1.3647,100756.84
1.2563,-0.1304,-0.0728,27.927,29.146,-10.427,1.2652,100757.44
0.98,-0.1323,-0.0527,30.061,20.183,24.695,0.9903,100757.17
0.9517,-0.1177,-0.0605,31.037,28.232,26.646,0.9608,100757.21
0.8262,-0.2363,0.0571,36.524,32.683,27.317,0.8612,100756.63
0.8374,-0.3203,0.1528,12.927,26.951,-2.134,0.9095,100756.91
1.1343,-0.1494,-0.0537,-33.415,-3.72,-42.744,1.1453,100757.49
1.2578,-0.0151,-0.2412,-32.256,-27.866,-24.573,1.2808,100757.45
1.1362,-0.0542,-0.0684,14.817,-25.122,23.049,1.1396,100757.55
1.1313,-0.1831,0.0518,30.549,-26.037,36.524,1.1472,100756.98
0.9214,0.0381,0.1621,6.098,-48.78,34.817,0.9363,100758.03
0.9692,0.0884,-0.1968,-11.098,-31.89,-14.817,0.993,100758.23
1.1997,-0.186,-0.0195,35.427,10.366,-17.256,1.2142,100757.65
0.8115,-0.1504,0.1558,7.256,-17.866,8.841,0.8399,100757.06
0.8218,0.085,-0.2427,-50.61,-37.378,-19.146,0.8611,100756.88
0.9351,0.1235,-0.416,-29.756,-26.89,-12.134,1.0309,100756.99
0.7988,0.0371,-0.2661,11.098,-23.72,13.232,0.8428,100757.05
0.8818,-0.0259,-0.1914,19.39,-20.915,9.939,0.9027,100757.24
1.0571,-0.0645,-0.1235,13.293,-22.073,11.402,1.0663,100757.02
1.1143,-0.1523,-0.0044,4.512,-22.195,30.0,1.1246,100756.84
0.9038,-0.1045,0.1118,-24.451,-34.024,28.232,0.9167,100756.59
0.8174,-0.0054,-0.1636,-44.268,-12.012,-12.866,0.8336,100756.64
1.2568,-0.105,-0.231,0.061,57.073,-55.305,1.2822,100756.69
1.4233,-0.229,-0.0776,32.439,56.341,-34.756,1.4437,100756.61
0.8062,-0.1914,-0.1211,17.317,13.78,20.488,0.8374,100756.18
0.7524,-0.124,-0.1938,14.512,20.976,22.195,0.7868,100756.23
0.8247,-0.1792,-0.0459,27.012,35.061,18.476,0.8452,100756.64
0.7656,-0.2412,0.0347,7.195,24.878,3.598,0.8035,100756.95
0.7734,-0.2466,-0.1343,-17.134,15.61,-22.256,0.8228,100757.41
1.0933,-0.1729,-0.1602,-9.573,20.244,-27.195,1.1184,100757.53
1.146,-0.1201,-0.1323,-1.28,0.793,-12.5,1.1598,100757.23
1.2231,-0.0728,-0.2124,10.854,0.549,-0.061,1.2436,100757.27
1.3369,-0.0913,-0.1782,44.329,5.366,24.329,1.3518,100757.64
1.0239,-0.0103,0.1157,56.159,-15.976,38.537,1.0305,100757.94
1.061,-0.1309,0.0327,29.573,0.488,-2.439,1.0696,100758.53
1.0781,-0.1636,0.001,-0.854,-1.646,-10.854,1.0905,100758.13
0.8491,-0.002,-0.1909,-40.427,-27.5,0.61,0.8703,100757.57
0.833,0.1523,-0.4243,-44.634,-34.146,6.768,0.9472,100757.02
0.8491,0.0708,-0.4678,0.183,-18.537,24.573,0.972,100756.74
0.98,-0.0806,-0.1611,40.244,-15.061,28.354,0.9964,100756.77
0.9717,-0.1777,0.0249,24.634,-39.146,27.866,0.9881,100756.17
0.9458,-0.2129,0.043,-3.963,-42.317,30.0,0.9704,100755.25
0.9092,-0.1851,0.002,-31.341,-34.573,19.817,0.9278,100755.88
1.0425,-0.1929,-0.1177,-45.244,-22.134,-11.768,1.0667,100755.77
0.9517,-0.2246,-0.1572,-33.78,12.866,-16.768,0.9904,100756.27
1.2139,-0.3008,-0.1011,-18.049,39.634,-40.0,1.2547,100756.2
1.0562,-0.2876,-0.0718,-23.659,23.11,-22.012,1.097,100755.98
0.7974,-0.1919,-0.1543,-33.659,14.695,-8.232,0.8345,100755.85
0.8511,-0.0962,-0.2192,-23.841,26.829,-7.134,0.8841,100756.45
0.8755,-0.1206,-0.2036,-0.732,35.427,5.305,0.9069,100756.45
0.8486,-0.2896,-0.0371,15.671,36.951,9.39,0.8974,100756.58
0.937,-0.27,-0.021,-10.854,17.805,-12.134,0.9754,100755.91
1.1362,-0.1313,-0.208,-36.22,-4.878,-29.817,1.1626,100756.25
1.1484,-0.1792,-0.2407,-18.171,-11.951,-4.939,1.187,100756.16
0.9482,0.0186,-0.1235,-3.11,-32.134,12.378,0.9564,100756.09
1.0469,0.0439,-0.2808,18.963,-7.805,7.012,1.0848,100755.79
1.0996,-0.0801,0.1509,62.683,27.195,16.098,1.1128,100755.8
1.1138,-0.2295,0.1392,25.915,25.122,-13.659,1.1457,100755.58
1.0542,-0.2437,0.1377,-21.829,9.329,-16.768,1.0907,100756.14
0.7974,-0.0034,-0.1177,-76.28,-20.976,-6.951,0.806,100755.22
0.7949,0.2378,-0.4751,-75.427,-18.293,1.89,0.9561,100754.92
0.7832,0.0786,-0.4165,-5.244,0.244,25.976,0.8905,100753.95
0.5723,-0.1162,-0.0967,20.366,-7.5,26.28,0.5919,100755.41
0.9375,-0.0708,-0.2559,-15.976,-10.183,-11.28,0.9744,100756.0
1.2808,-0.0322,-0.2163,-12.805,-13.72,-9.024,1.2993,100755.86
1.0903,-0.082,-0.1284,-13.78,-12.561,20.305,1.1009,100755.62
1.2559,-0.0083,-0.1982,-32.561,-7.439,-13.293,1.2714,100755.2
1.3384,0.0332,-0.1997,-15.549,-13.11,-43.232,1.3536,100755.87
1.1211,-0.1982,-0.0693,33.476,16.159,-32.134,1.1406,100755.89
1.1162,-0.3018,0.1616,47.195,26.585,-30.976,1.1675,100757.12
0.873,-0.1807,-0.043,6.829,-5.244,-12.5,0.8926,100757.07
0.6782,-0.0645,-0.1514,6.037,-13.476,12.561,0.6979,100756.17
0.5879,-0.0454,-0.1167,28.902,7.805,30.061,0.6011,100756.62
0.7646,-0.1445,-0.0669,40.427,28.598,12.134,0.7811,100756.32
0.9341,-0.2861,0.022,32.195,31.768,-6.951,0.9772,100756.84
1.1128,-0.229,-0.0464,-3.659,12.866,-25.488,1.1371,100756.73
1.2588,-0.0669,-0.2329,-20.854,-10.122,-26.646,1.2819,100755.92
1.2334,-0.1069,-0.1421,5.854,-9.329,0.671,1.2462,100756.28
1.1294,-0.1841,-0.0557,16.646,-8.659,20.122,1.1457,100755.95
0.9751,-0.0928,0.0542,8.537,-7.805,28.78,0.981,100756.19
1.0649,0.105,-0.0698,-13.598,4.39,-8.476,1.0724,100756.86
1.3052,0.019,-0.1528,-9.146,19.817,-30.854,1.3142,100756.25
1.1016,-0.0957,-0.0737,-10.915,2.195,1.951,1.1082,100756.66
0.9023,0.1162,-0.2119,-39.39,-36.524,26.159,0.9342,100755.89
0.6602,0.1675,-0.2969,-29.329,-35.854,55.061,0.743,100755.4
0.5562,0.0337,-0.2256,-10.488,-14.695,52.134,0.6011,100756.12
0.7876,-0.0469,-0.2559,-16.829,-13.171,21.341,0.8294,100756.05
1.0254,-0.0093,-0.2153,-18.232,-16.768,14.756,1.0478,100756.88
1.0967,-0.0166,-0.2417,-14.268,-21.768,25.671,1.1231,100756.64
0.7837,-0.0854,-0.0459,-10.915,-24.146,34.512,0.7897,100755.61
1.5684,-0.0288,-0.1694,-1.768,6.22,-59.39,1.5777,100755.45
1.1411,-0.0654,-0.1787,28.232,1.524,-11.951,1.1569,100755.83
0.9048,-0.0942,-0.1455,53.415,5.976,5.793,0.9212,100755.49
0.793,-0.1104,-0.1436,60.305,9.939,13.598,0.8134,100755.23
0.8232,-0.0874,-0.1753,50.366,6.098,11.28,0.8462,100755.54
0.7344,-0.0972,-0.2051,42.927,5.61,18.72,0.7686,100756.12
0.8848,-0.2344,-0.1855,45.122,15.976,11.037,0.9339,100755.83
1.0967,-0.3291,-0.0513,33.963,-1.768,6.098,1.1461,100756.34
0.9277,-0.1792,-0.1372,-4.634,-34.146,9.39,0.9548,100756.35
0.9541,-0.2217,-0.3467,-0.732,-25.976,4.146,1.0391,100755.52
0.9399,-0.2344,-0.1108,35.061,-9.817,9.695,0.975,100756.25
1.1221,-0.2598,-0.2656,27.988,0.976,-10.488,1.182,100756.66
1.2432,-0.2031,-0.0908,48.537,12.927,-9.573,1.2629,100756.0
1.0171,-0.1216,-0.0244,35.183,17.5,-10.427,1.0246,100755.63
1.021,-0.2319,-0.1392,20.976,34.512,-15.244,1.0562,100755.34
0.7886,-0.2246,-0.0615,0.244,18.354,-1.28,0.8222,100755.23
0.6826,-0.0015,-0.2954,-39.085,1.951,-6.22,0.7438,100755.68
0.748,0.0117,-0.3682,-24.817,11.89,-1.402,0.8338,100756.12
0.8218,-0.021,-0.3247,-8.841,17.866,-0.488,0.8839,100755.98
1.0288,-0.0405,-0.3267,-14.146,1.89,-8.72,1.0802,100756.21
0.9395,-0.022,-0.2627,-20.244,-16.951,12.317,0.9757,100756.88
1.0806,-0.0122,-0.269,-22.744,-27.805,7.561,1.1136,100757.38
1.021,-0.1367,-0.0996,-11.098,-26.707,18.11,1.0349,100757.03
1.2344,-0.125,0.0825,-29.329,-27.805,-16.037,1.2434,100756.4
1.2637,0.0493,-0.147,-51.646,-30.976,-29.695,1.2731,100756.52
1.1885,-0.0215,-0.2778,-2.988,-2.073,-28.841,1.2207,100756.39
1.1812,-0.0718,-0.0615,53.659,3.354,-14.939,1.1849,100755.56
0.834,-0.001,-0.0811,55.244,-14.695,9.939,0.8379,100755.9
0.7563,0.0308,-0.1821,59.451,-4.573,5.244,0.7786,100755.67
0.7534,-0.0024,-0.1646,78.354,10.488,1.585,0.7712,100756.24
0.8101,0.0239,-0.1348,82.866,4.39,-8.476,0.8215,100756.05
0.9517,0.0474,-0.1484,80.061,-5.732,-5.488,0.9643,100756.3
1.0518,0.0376,-0.1689,78.11,-27.988,4.329,1.0659,100755.96
1.0386,0.1289,-0.0742,76.402,-65.549,7.256,1.0492,100756.09
1.0552,0.1851,-0.1753,87.683,-59.695,-18.293,1.0855,100755.8
1.6089,0.0308,-0.105,144.634,-20.976,-31.829,1.6126,100755.38
1.2192,0.1841,0.2681,149.939,-51.341,4.146,1.2619,100754.92
1.0088,0.0879,-0.1855,111.829,-39.085,-10.488,1.0295,100754.83
1.0122,-0.0049,-0.0195,139.817,3.171,-4.878,1.0124,100755.25
1.0156,0.082,-0.1187,112.683,6.22,-13.537,1.0258,100755.57
0.8711,0.0874,-0.3022,95.061,7.378,-14.085,0.9262,100755.54
0.7603,-0.0308,-0.2539,102.561,10.427,-16.585,0.8021,100755.42
0.8472,-0.0596,-0.188,100.244,-4.756,-30.122,0.8698,100755.32
1.0591,-0.0957,-0.2051,98.72,-19.695,-15.671,1.083,100755.37
0.8682,-0.166,0.0425,106.22,-42.134,21.829,0.8849,100756.25
0.6924,-0.1182,-0.0815,80.732,-49.39,-17.561,0.7071,100755.44
1.334,-0.0156,-0.2812,98.598,-9.085,-95.305,1.3634,100755.47
1.8052,0.0469,-0.1777,152.866,13.293,-87.256,1.8145,100756.34
1.1255,-0.0005,-0.0879,177.805,-3.598,-5.427,1.1289,100756.5
0.8027,-0.1772,-0.0352,175.427,12.134,11.159,0.8228,100756.26
0.9878,-0.3228,0.0298,130.793,27.317,2.256,1.0396,100755.96
0.938,-0.1694,-0.2373,47.012,3.78,1.159,0.9823,100756.34
1.168,-0.0781,-0.4658,14.756,-7.866,-6.524,1.2599,100755.77
1.1333,-0.0176,-0.3081,27.927,-30.793,13.841,1.1746,100756.45
0.9194,-0.0132,-0.2578,37.5,-44.756,12.317,0.955,100756.94
0.894,-0.1328,-0.2051,65.671,-29.085,-7.927,0.9268,100756.58
0.9932,-0.1812,-0.0503,89.024,-24.207,-25.122,1.0108,100756.19
1.0347,-0.1318,-0.0244,93.293,-37.988,-32.439,1.0433,100755.79
0.9868,-0.2935,0.0259,110.549,-31.22,-30.366,1.0299,100755.85
1.0615,-0.2925,0.188,110.671,-18.354,-21.646,1.117,100755.9
1.1616,-0.0601,-0.0005,72.927,-26.585,-32.012,1.1632,100756.3
1.0425,0.0269,-0.0898,68.171,-27.195,-26.951,1.0467,100756.0
0.8345,-0.0234,-0.1582,76.707,-9.756,-5.854,0.8497,100756.38
0.8428,-0.0859,-0.1328,82.805,0.793,-1.402,0.8575,100756.66
0.7129,-0.1499,-0.1162,67.622,3.476,9.39,0.7377,100756.88
0.8325,-0.1646,-0.1704,43.171,9.207,-6.89,0.8656,100757.28
1.0889,-0.1528,-0.21,22.988,3.659,-15.122,1.1194,100757.22
1.2012,-0.1177,-0.231,9.451,-10.976,0.0,1.2288,100757.52
1.1602,-0.0718,-0.1299,4.451,-36.098,12.317,1.1696,100757.27
0.9097,-0.0708,-0.0894,5.732,-45.976,24.268,0.9168,100757.46
0.8843,-0.2441,-0.1084,15.305,-22.378,3.415,0.9237,100756.97
1.082,-0.2769,-0.1494,14.817,-12.683,-40.915,1.1268,100757.47
1.3408,-0.188,-0.3022,20.915,-15.976,-64.268,1.3873,100757.34
1.1416,-0.083,-0.2505,53.78,-29.451,-18.841,1.1717,100756.9
0.8428,-0.0825,-0.2549,81.89,-22.561,25.061,0.8843,100756.91
0.811,-0.1235,-0.1519,89.634,-17.622,23.598,0.8343,100756.34
0.5903,-0.1704,-0.1289,74.756,-9.512,28.415,0.6278,100756.12
0.686,-0.2056,-0.0464,59.024,15.0,8.841,0.7177,100755.11
0.9434,-0.1738,-0.0005,29.878,19.146,-25.854,0.9592,100755.1
0.9976,-0.1074,-0.1035,-0.122,6.951,-46.098,1.0087,100755.2
1.0327,-0.1514,-0.208,7.866,17.073,-48.598,1.0643,100755.05
1.2661,-0.2168,-0.0928,38.902,31.402,-43.11,1.2879,100754.93
1.2109,-0.2344,0.0254,38.171,10.488,-31.951,1.2337,100754.23
1.0991,-0.1631,-0.0977,22.561,-4.085,-25.793,1.1154,100755.17
1.0483,-0.0225,-0.1504,24.695,-8.902,-21.22,1.0593,100754.41
0.9185,0.0176,-0.2056,33.78,-7.378,-14.756,0.9413,100755.19
0.8174,-0.0259,-0.2461,43.293,-2.561,-8.537,0.854,100756.0
0.7578,-0.0571,-0.2295,43.171,-3.232,-7.195,0.7939,100756.27
0.8672,-0.0981,-0.2798,36.89,4.329,-21.159,0.9165,100756.48
1.1177,-0.2412,-0.2402,40.122,12.073,-24.268,1.1684,100756.14
1.0708,-0.3633,-0.124,27.683,8.415,5.366,1.1375,100756.23
1.1606,-0.2686,-0.0586,-11.524,-9.634,0.549,1.1927,100756.91
1.0547,-0.1904,-0.0059,-44.817,-30.122,9.024,1.0718,100755.59
0.8384,-0.1416,-0.1294,-64.085,-22.5,22.561,0.86,100756.08
0.8721,-0.0391,-0.0488,-63.902,-19.451,-8.354,0.8743,100755.23
0.9429,0.0186,-0.3096,-52.317,9.512,-21.524,0.9926,100754.95
1.1831,-0.1211,-0.2046,8.72,53.049,-22.256,1.2068,100754.74
1.0977,-0.2188,-0.0952,23.11,31.768,4.024,1.1233,100755.09
0.8096,-0.1172,-0.1387,6.89,-7.378,36.768,0.8297,100755.12
0.7915,-0.1045,-0.1768,10.183,-1.463,40.427,0.8177,100755.12
0.8975,-0.2368,-0.0156,22.683,14.573,26.402,0.9283,100755.73
0.7593,-0.2661,0.0156,-4.756,6.463,9.573,0.8047,100755.94
1.314,-0.019,-0.3174,1.585,-8.293,-39.634,1.3519,100756.31
1.123,-0.1294,-0.1006,48.841,-20.61,-1.89,1.1349,100756.15
1.0693,-0.2847,-0.0288,58.963,-14.085,-2.744,1.107,100756.24
1.1421,-0.1611,0.1094,48.171,-5.061,5.0,1.1586,100755.97
1.0146,0.0332,-0.0205,12.805,-20.793,-4.024,1.0154,100756.11
1.0103,-0.0503,-0.1841,14.634,-0.732,-9.756,1.0281,100756.35
1.0498,-0.1621,-0.0718,25.549,7.561,9.634,1.0647,100755.69
0.7573,-0.0776,-0.3311,-19.451,-24.085,19.39,0.8302,100754.94
0.7588,-0.1787,-0.2295,-7.256,-15.732,7.561,0.8126,100754.76
1.0259,-0.1099,-0.2031,-15.915,-13.049,-14.268,1.0515,100754.98
1.2607,-0.1284,-0.0156,-12.073,-3.11,-12.317,1.2674,100754.55
1.0605,-0.0742,0.0815,-37.866,-2.622,4.024,1.0663,100754.95
0.9961,-0.0537,-0.2012,-63.171,0.0,-10.305,1.0176,100754.73
0.8926,-0.1216,-0.4009,-38.049,21.829,-2.073,0.986,100755.47
1.0386,-0.1865,-0.3013,-0.793,19.268,-9.146,1.0974,100755.76
0.813,-0.3477,-0.1514,19.024,16.707,9.756,0.8971,100754.88
0.8706,-0.3149,-0.0522,8.841,25.305,-2.622,0.9273,100754.33
1.126,-0.1797,-0.1616,-12.378,18.78,-23.841,1.1516,100755.37
1.0752,-0.2271,-0.0337,-3.659,11.28,-2.256,1.0994,100756.29
0.8887,-0.1455,-0.0928,-23.354,-23.476,-3.78,0.9053,100757.22
1.0566,-0.021,-0.3604,-22.927,-43.78,-26.524,1.1166,100757.67
1.062,0.0845,-0.3481,31.524,-35.427,4.756,1.1208,100757.04
0.9912,-0.1279,-0.1592,92.805,-13.232,24.024,1.012,100756.31
1.0459,-0.2324,0.1748,94.756,-10.0,34.634,1.0856,100756.4
0.7754,-0.0288,-0.0063,15.488,-50.0,19.329,0.776,100756.2
0.9102,-0.0991,-0.3589,5.427,-16.159,-14.085,0.9834,100755.93
1.0864,-0.2593,-0.0186,34.634,19.207,-3.537,1.1171,100755.75
0.8198,-0.1245,-0.1411,-25.732,-10.854,10.915,0.8411,100755.61
0.7217,-0.0425,-0.4146,-53.171,-22.744,3.598,0.8334,100755.36
0.5508,-0.2007,-0.2798,-34.39,-10.732,6.768,0.6495,100755.8
0.7397,-0.2065,-0.4028,-45.0,15.244,-25.915,0.8673,100756.01
1.6162,-0.2012,-0.2905,-46.585,21.463,-59.085,1.6544,100755.91
1.2305,0.1406,-0.1274,-80.366,-51.159,8.232,1.245,100756.09
0.7549,0.0698,-0.5425,-71.341,-50.061,19.268,0.9322,100756.36
0.8906,-0.1528,-0.1841,27.744,25.366,31.098,0.9222,100756.2
0.9795,-0.2295,-0.0825,25.854,43.171,25.671,1.0094,100755.46
1.0459,-0.1514,-0.2695,-7.134,25.061,10.549,1.0906,100754.77
0.9414,-0.1938,-0.2744,4.512,38.598,21.22,0.9996,100755.49
1.1548,-0.2065,-0.1914,11.402,46.951,8.659,1.1886,100755.66
1.0293,-0.1309,-0.2139,-3.171,27.134,15.0,1.0594,100755.77
0.9136,-0.292,-0.1963,-2.317,29.756,14.451,0.979,100756.38
1.1714,-0.374,-0.0737,-17.927,7.012,-22.805,1.2319,100756.91
1.209,-0.0049,-0.1953,-57.195,-72.744,-38.171,1.2247,100755.87
1.0137,0.1182,-0.4453,-18.963,-77.134,7.988,1.1135,100755.94
1.0908,-0.2642,-0.0942,71.463,-45.488,45.122,1.1263,100755.14
0.4658,-0.0889,0.2275,46.28,-69.756,57.439,0.526,100755.53
0.5254,-0.1318,-0.5156,1.829,-2.012,-3.476,0.7479,100755.33
1.3052,-0.2207,-0.1855,56.707,52.5,-30.976,1.3366,100755.3
0.7344,-0.0762,-0.1802,0.427,0.976,30.61,0.76,100755.52
0.5278,-0.0112,-0.6323,-33.841,4.024,10.0,0.8238,100754.71
0.9468,0.0195,-0.5376,-3.841,4.573,-22.805,1.0889,100755.17
0.7803,-0.0474,-0.4888,6.707,-9.146,-7.927,0.9219,100755.68
0.9575,-0.2397,-0.3071,16.768,-11.341,-27.317,1.0338,100755.91
0.8931,-0.251,0.0312,1.22,-31.646,-17.012,0.9282,100755.84
1.002,-0.189,-0.2681,-41.829,-16.951,-35.305,1.0543,100756.41
1.3818,-0.2109,-0.2266,-9.329,5.61,-41.829,1.4161,100755.37
1.0723,-0.1792,-0.2378,3.476,25.427,15.061,1.1128,100756.07
0.8457,-0.1382,-0.2969,-1.402,13.415,11.646,0.9069,100756.2
0.8613,-0.2524,-0.3501,4.085,30.793,7.378,0.9634,100756.22
0.9443,-0.3179,-0.2827,0.0,38.78,-3.476,1.0357,100755.61
1.019,-0.2446,-0.3335,-10.732,41.829,-12.317,1.0998,100756.24
1.0605,-0.2856,-0.1826,9.024,51.463,-4.695,1.1134,100755.76
0.9048,-0.4106,0.0562,12.805,35.915,-7.073,0.9952,100756.1
1.1187,-0.3936,0.0,-12.561,12.988,-40.0,1.1859,100756.12
1.3008,0.0386,-0.2505,-28.293,-10.427,-10.488,1.3252,100756.25
0.9429,0.1104,-0.3252,-3.415,-37.988,34.024,1.0035,100755.62
1.1562,-0.2998,0.0898,50.732,-16.768,51.646,1.1979,100756.49
0.6631,0.0273,0.4033,2.195,-58.78,70.0,0.7766,100757.14
0.6982,0.0176,-0.4009,-61.646,-14.939,14.085,0.8053,100757.16
1.4839,-0.104,-0.2798,-0.915,35.854,-9.207,1.5136,100757.03
1.0596,0.0161,-0.3486,-14.451,-7.439,24.878,1.1156,100756.82
1.0991,0.0688,-0.6646,-7.927,-15.244,4.573,1.2862,100756.16
0.9316,-0.0156,-0.4854,32.744,-16.402,21.28,1.0506,100756.64
0.6846,-0.1826,-0.3027,23.232,-29.573,20.122,0.7705,100756.51
0.8286,-0.2109,-0.2231,-8.963,-21.22,11.646,0.8837,100756.17
0.8428,-0.085,-0.2959,-46.768,-37.683,3.232,0.8972,100756.77
0.8501,-0.2002,-0.1895,-50.793,-54.878,-16.951,0.8937,100756.12
0.8184,-0.229,-0.1099,-45.183,-43.537,-22.683,0.8569,100755.14
0.9697,-0.2505,-0.2446,-22.134,14.817,-7.744,1.031,100755.27
0.9712,-0.271,-0.1836,4.39,34.451,14.085,1.0249,100755.87
0.8418,-0.3242,-0.1709,8.476,31.768,25.549,0.9181,100755.7
0.7969,-0.3218,-0.1895,1.28,43.232,37.927,0.88,100754.84
0.875,-0.2354,-0.2417,-4.512,52.5,20.366,0.9378,100755.55
1.0332,-0.251,-0.291,3.902,73.963,4.329,1.1024,100756.19
1.2656,-0.4038,-0.2144,22.195,85.305,-6.28,1.3457,100756.56
1.2295,-0.3555,-0.0522,-3.049,47.378,-8.171,1.2809,100756.23
1.0747,-0.2461,-0.3013,-50.244,-2.988,-12.378,1.1429,100756.45
0.9048,-0.082,-0.4204,-17.317,-29.939,1.524,1.0011,100757.0
1.0073,-0.2041,-0.2559,48.598,-23.902,3.476,1.0592,100755.8
0.8774,-0.2085,0.1401,66.402,-39.451,39.817,0.9127,100755.63
0.6919,-0.1025,-0.2217,19.512,-41.28,14.024,0.7337,100755.64
1.3989,-0.231,-0.2896,53.049,-4.817,-47.439,1.4471,100755.91
1.415,-0.3403,-0.0996,65.61,6.28,-4.817,1.4588,100755.86
1.0503,-0.2227,-0.1201,20.793,-27.195,15.183,1.0803,100755.45
0.7578,0.0005,-0.4692,-22.866,-44.634,19.939,0.8913,100755.14
0.6523,-0.0093,-0.394,5.427,-15.915,6.768,0.7622,100755.05
0.7539,-0.0894,-0.252,13.415,-9.329,-5.427,0.7999,100755.58
0.5693,-0.0952,-0.2695,-6.28,-46.585,2.805,0.6371,100755.6
0.7021,-0.2437,-0.3901,-7.561,-21.159,-11.89,0.8394,100755.12
1.1997,-0.4043,-0.2056,13.232,4.146,-20.671,1.2826,100754.79
0.8877,-0.3086,0.1162,-2.134,-26.037,-2.317,0.947,100754.88
0.9478,-0.3052,-0.2495,-17.561,9.878,-16.707,1.0265,100755.09
0.9961,-0.3618,-0.1021,19.024,40.366,-8.841,1.0647,100755.48
0.8809,-0.3252,0.0659,0.366,34.695,-20.732,0.9413,100755.91
1.0645,-0.1138,-0.2432,-46.28,39.756,-30.854,1.0978,100756.01
1.0474,-0.0479,-0.4531,-35.732,43.78,-3.049,1.1422,100756.05
0.9722,-0.1621,-0.3511,8.72,57.988,9.939,1.0463,100755.98
0.9541,-0.2036,-0.1543,30.854,51.768,4.451,0.9877,100756.16
0.9155,-0.4209,-0.082,26.951,49.512,-9.512,1.011,100756.43
1.0967,-0.5054,0.0449,1.098,30.854,-21.463,1.2084,100756.37
0.9136,-0.1753,-0.0913,-51.768,-14.573,-13.232,0.9347,100756.7
1.3013,-0.1621,-0.2861,-43.232,-23.537,-22.439,1.3422,100756.47
1.2485,-0.186,-0.0186,7.927,-45.244,29.085,1.2625,100757.13
0.7642,-0.1411,0.0288,5.0,-66.951,40.854,0.7776,100757.3
1.3232,-0.1914,-0.0278,25.427,-1.768,11.341,1.3373,100757.88
0.9067,-0.0542,-0.1855,-8.354,-25.915,28.476,0.9271,100757.23
0.7949,0.0269,-0.4966,-25.244,-26.585,18.78,0.9377,100757.21
0.9023,0.0161,-0.5874,-7.805,1.707,33.293,1.0768,100756.87
0.7363,-0.0503,-0.3423,15.793,-16.585,43.598,0.8136,100757.19
0.6582,-0.2646,-0.2515,10.976,-39.634,2.683,0.7527,100756.21
0.9536,-0.4385,-0.2148,4.634,-26.89,-17.805,1.0714,100755.48
0.728,-0.2554,0.0059,-14.634,-45.0,-7.866,0.7715,100754.81
0.7905,-0.2886,-0.2495,-22.988,-31.28,-56.463,0.8778,100755.33
1.1235,-0.4624,0.0171,23.963,40.305,-20.671,1.2151,100755.42
0.8652,-0.4731,0.1143,-7.195,61.463,12.988,0.9927,100755.13
0.9448,-0.2231,-0.1763,-62.5,33.659,-27.927,0.9867,100755.9
0.9917,-0.0938,-0.439,-56.22,41.037,-15.0,1.0886,100755.99
1.0537,-0.2759,-0.3115,-8.415,60.366,1.28,1.1329,100756.3
0.9551,-0.2744,-0.3066,0.61,61.341,11.951,1.04,100756.54
0.9692,-0.2466,-0.2021,8.659,48.963,7.439,1.0203,100756.69
0.9688,-0.3237,-0.0107,5.61,44.085,7.195,1.0215,100757.09
1.0869,-0.3823,-0.1616,-25.793,20.061,-21.22,1.1635,100757.0
1.1929,-0.2378,-0.1777,-27.683,2.683,-22.5,1.2293,100756.71
1.2256,-0.1455,-0.0947,-4.329,-9.573,4.146,1.2378,100756.73
0.8809,-0.1797,0.0293,17.561,-28.293,50.549,0.8995,100756.59
0.5654,-0.0791,0.0166,15.244,-41.28,44.024,0.5712,100756.76
0.7515,-0.0332,-0.1958,27.988,-24.878,-23.78,0.7773,100757.01
1.2202,-0.1646,0.0537,83.598,18.841,-59.817,1.2324,100756.69
1.3228,-0.2681,0.1548,80.671,26.524,-36.28,1.3585,100756.59
1.084,-0.106,-0.0425,26.463,-6.28,-23.902,1.09,100756.65
1.0713,0.145,-0.4487,-7.622,-21.707,-13.537,1.1705,100756.57
0.9263,0.0293,-0.4111,28.049,-7.256,1.951,1.0138,100755.4
0.9658,-0.1704,-0.0996,32.866,-18.72,-11.768,0.9858,100755.01
0.6592,-0.125,-0.1226,-13.963,-46.159,-3.476,0.682,100755.71
0.9346,-0.0537,-0.2471,-33.293,-35.61,-20.366,0.9682,100755.98
0.9297,-0.1006,-0.2368,-23.598,-26.463,9.939,0.9646,100756.68
0.8335,-0.0576,0.02,-14.329,-42.012,-13.476,0.8357,100757.34
1.1025,-0.1362,-0.0986,12.744,15.671,-26.646,1.1153,100757.94
1.251,-0.2632,0.0273,49.207,53.537,-0.183,1.2787,100757.64
1.0493,-0.1758,-0.2114,19.085,51.037,-24.268,1.0847,100757.26
0.9873,-0.2129,-0.0977,24.146,51.707,-10.976,1.0147,100757.55
0.8506,-0.0903,-0.0786,4.878,25.732,-30.244,0.859,100756.98
1.1714,-0.1333,-0.1455,6.098,33.171,-49.451,1.1879,100757.53
1.1626,-0.1797,-0.0317,9.817,10.549,-32.134,1.1768,100757.36
1.1162,-0.0576,-0.0469,-5.427,-31.159,-14.39,1.1187,100757.46
1.2515,-0.1152,0.1333,12.256,-4.817,35.366,1.2638,100757.65
1.0063,-0.0361,0.1543,-7.683,-25.61,61.646,1.0187,100758.42
0.835,0.231,-0.2139,-28.78,-61.159,24.085,0.8923,100758.75
1.1348,0.019,-0.0942,41.22,9.634,16.829,1.1388,100758.89
1.1978,-0.0898,0.0732,40.305,27.439,19.39,1.2033,100758.22
1.2275,0.0396,-0.311,-8.354,-9.268,7.378,1.2669,100758.61
0.9658,0.0771,-0.3184,2.683,-24.085,23.598,1.0199,100757.66
0.7832,0.0269,-0.334,15.732,-14.024,20.915,0.8519,100757.94
0.8604,0.0122,-0.2085,19.817,-5.915,5.183,0.8853,100757.16
0.7983,-0.0859,-0.249,2.744,-19.268,5.366,0.8407,100756.96
0.6494,-0.0571,-0.1211,-8.537,-37.622,-6.22,0.6631,100756.94
0.958,-0.1294,-0.1436,-3.049,-7.866,-10.305,0.9773,100756.67
0.8315,-0.2017,0.1484,-1.951,-14.39,4.024,0.8684,100756.98
0.8647,-0.1333,0.0693,-18.598,-3.78,-28.537,0.8777,100756.82
1.2319,-0.2437,-0.0532,9.329,52.805,-31.159,1.2569,100756.7
1.0771,-0.2778,0.1201,12.134,28.78,-16.707,1.1189,100756.35
0.9307,-0.1543,-0.1343,-15.366,24.756,-13.11,0.9529,100756.49
1.1221,-0.042,-0.1445,15.061,45.183,-12.683,1.1321,100758.01
0.8833,-0.1519,-0.042,27.622,42.866,-13.293,0.8972,100757.48
1.022,-0.2241,-0.0059,18.598,33.598,-39.512,1.0463,100757.91
1.1577,-0.147,-0.0513,0.366,9.207,-39.939,1.1681,100757.9
1.1489,0.0454,-0.2651,-4.451,-20.427,-7.744,1.18,100757.49
1.0142,0.0015,0.0293,40.366,-15.427,50.976,1.0146,100756.94
1.189,-0.104,0.2632,45.427,-1.585,75.061,1.2222,100757.42
0.814,0.1138,0.1709,3.354,-48.78,67.195,0.8395,100758.27
0.8618,0.0669,-0.1948,-2.5,-25.915,15.305,0.8861,100758.78
1.1313,-0.2363,0.1538,46.28,37.012,9.268,1.166,100757.81
1.0698,-0.1758,0.0269,-11.951,5.183,0.976,1.0845,100757.55
0.9453,0.0386,-0.3389,-51.707,-8.049,-2.866,1.005,100757.38
1.0122,0.1016,-0.3638,-20.793,3.232,-6.585,1.0804,100757.72
0.9116,-0.1162,-0.1841,17.317,-10.122,-6.707,0.9373,100757.23
0.7388,-0.1958,-0.084,6.585,-3.659,3.476,0.7689,100757.37
0.9702,-0.0093,-0.2388,-27.073,-8.11,-7.439,0.9992,100757.1
0.7471,0.0527,-0.4341,-40.854,-13.232,28.415,0.8656,100757.77
0.8037,-0.0332,-0.1011,-30.488,-56.28,-1.646,0.8107,100757.3
1.1465,-0.1934,0.2671,2.317,-36.829,-30.244,1.193,100757.55
1.2329,-0.3359,0.3657,16.402,21.037,-5.61,1.3292,100757.62
0.7939,-0.2251,0.0186,-27.927,13.659,12.988,0.8254,100757.55
0.8867,-0.1333,-0.103,-26.89,33.659,-7.439,0.9026,100757.48
1.061,-0.0942,-0.1738,-20.0,59.817,-9.207,1.0793,100757.8
1.2358,-0.1147,-0.2119,-23.841,47.439,-21.159,1.2591,100756.94
0.9619,-0.0552,-0.0776,-14.512,17.744,-9.878,0.9666,100756.53
1.0688,-0.2339,0.0493,-4.634,5.549,-20.122,1.0952,100756.35
0.9492,-0.1758,0.1392,-9.634,-15.976,6.098,0.9753,100755.76
0.9766,0.1001,-0.0459,-17.988,-24.939,13.598,0.9828,100755.77
1.4175,-0.1377,0.1714,13.354,-24.695,14.146,1.4344,100756.16
0.8647,0.2163,0.0171,-21.829,-79.451,37.561,0.8916,100756.82
0.9209,0.1543,-0.3926,5.732,-49.634,-17.317,1.0129,100756.71
1.1294,-0.1606,0.3066,96.768,37.622,-5.854,1.1813,100756.87
1.04,-0.042,0.2451,14.085,8.72,-16.951,1.0694,100757.37
1.1333,0.2104,-0.3462,-48.659,-11.098,-25.122,1.2035,100757.86
1.0522,0.1323,-0.3662,-12.256,2.927,7.988,1.122,100757.73
0.8721,0.1182,-0.2646,12.439,-26.707,14.573,0.919,100757.41
0.8862,-0.0586,-0.1138,19.695,-31.951,3.537,0.8954,100756.91
0.6113,-0.0923,-0.0894,4.573,-28.537,28.049,0.6247,100756.89
0.77,-0.1753,-0.0737,-9.329,-15.427,2.378,0.7932,100757.37
1.083,-0.0928,-0.0044,-24.39,-23.415,-13.171,1.087,100757.14
0.8618,-0.0635,-0.1577,-20.549,-17.378,-7.195,0.8784,100756.93
1.1826,-0.29,0.0254,23.293,57.5,-14.695,1.2179,100757.16
1.2661,-0.2295,0.0034,-3.232,37.012,-16.098,1.2867,100757.33
1.0039,-0.0415,-0.2734,-27.866,-5.61,-7.317,1.0413,100757.23
0.77,-0.1411,-0.1401,11.037,17.683,15.366,0.7953,100757.61
0.895,-0.2749,0.0254,21.28,44.756,1.829,0.9366,100757.69
0.79,-0.2119,0.0659,-14.268,21.524,-10.244,0.8206,100758.23
1.0864,-0.1636,0.0415,-26.646,18.11,-43.537,1.0995,100758.51
1.2383,-0.0122,-0.1367,-33.841,-10.122,-22.561,1.2459,100758.84
0.8965,0.0825,-0.125,-10.488,-15.488,44.146,0.9089,100757.85
1.0054,-0.1943,0.0332,19.573,11.524,52.988,1.0245,100756.74
0.916,0.0127,0.1348,-10.305,-21.646,37.561,0.926,100756.67
1.0039,0.1143,-0.376,-34.085,-14.146,-16.463,1.0781,100758.09
1.7363,-0.1392,-0.1025,41.646,40.305,-29.512,1.7449,100758.41
1.2222,-0.1089,0.187,13.598,-4.695,24.573,1.2412,100758.26
1.187,0.1226,-0.3291,-53.11,-37.195,-0.793,1.2379,100758.41
1.0674,0.124,-0.417,-24.024,-33.902,23.049,1.1526,100758.28
0.6177,0.019,-0.2002,8.11,-43.659,42.134,0.6496,100758.06
0.5225,-0.0928,-0.0786,9.024,-41.037,22.012,0.5364,100758.27
0.6011,-0.1587,-0.0044,-1.585,-23.902,5.915,0.6217,100758.19
0.8003,-0.1333,-0.0449,-20.793,-16.768,0.915,0.8126,100758.0
0.8218,-0.0815,-0.0146,-32.622,-19.512,1.646,0.8259,100757.24
0.9497,-0.1587,-0.106,-20.793,8.841,-12.317,0.9687,100758.02
1.1855,-0.2222,-0.0596,-0.244,42.439,-20.671,1.2077,100758.23
1.146,-0.188,-0.0688,-8.354,23.598,-15.61,1.1634,100757.27
0.9526,-0.146,-0.1899,-16.098,8.659,-7.134,0.9823,100757.3
0.9951,-0.1519,-0.2124,2.134,23.049,-0.671,1.0288,100757.08
1.0601,-0.252,-0.1514,14.512,42.073,-1.463,1.1001,100757.41
1.2798,-0.312,-0.1816,9.878,46.951,-2.866,1.3297,100757.15
0.6885,-0.1616,-0.1494,2.195,17.195,18.415,0.7228,100757.84
1.0522,-0.1997,-0.1392,15.854,29.512,-17.317,1.08,100758.46
1.0371,-0.2417,0.0337,29.573,15.244,16.89,1.0654,100758.46
1.0278,-0.0693,-0.0356,3.293,-23.049,21.463,1.0308,100757.69
0.9614,-0.1655,0.0562,11.463,-21.341,39.207,0.9772,100757.14
1.0952,-0.084,0.0923,3.415,-6.402,34.512,1.1023,100757.7
1.166,0.083,-0.0425,-8.476,-28.293,8.963,1.1697,100758.22
1.0059,-0.0156,0.0146,18.293,-11.098,12.012,1.0061,100758.12
0.8882,-0.0723,0.104,16.22,16.646,9.878,0.8972,100758.18
1.0415,-0.0073,-0.1562,-24.207,12.5,-25.732,1.0532,100758.48
0.9243,-0.0303,-0.3652,-34.085,10.549,-13.78,0.9943,100758.34
0.75,-0.1309,-0.1895,-14.573,6.402,-17.317,0.7845,100758.98
0.9985,-0.1348,-0.1733,-32.073,-8.049,-45.305,1.0224,100758.96
1.0786,-0.1406,-0.1294,-47.134,-28.476,-31.098,1.0954,100758.8
0.9678,-0.0713,-0.0308,-53.659,-46.585,-8.171,0.9709,100759.2
0.9668,-0.1172,-0.106,-47.5,-53.415,-5.427,0.9796,100758.63
1.0068,-0.2183,0.064,-9.634,-7.988,-4.39,1.0322,100758.2
1.3896,-0.3042,-0.0146,-6.037,36.463,-15.122,1.4226,100758.26
1.2114,-0.1133,-0.0649,-27.866,-1.402,1.28,1.2184,100757.8
1.0591,-0.0352,-0.3135,-35.244,-7.317,8.537,1.1051,100757.7
1.0332,-0.0703,-0.2471,-3.293,17.805,22.866,1.0647,100758.0
0.9565,-0.0195,-0.2134,10.366,21.524,24.268,0.9802,100757.98
0.8218,-0.1558,-0.0635,22.866,13.841,10.671,0.8388,100757.59
0.6997,-0.1875,0.0986,1.28,-19.146,-26.341,0.7311,100757.41
1.0195,-0.0698,-0.2036,-23.902,-38.293,-49.085,1.042,100756.92
1.0723,-0.0244,0.0552,33.049,-12.378,28.476,1.074,100757.29
0.6538,-0.2012,0.126,22.5,-25.061,74.512,0.6956,100756.84
0.5146,0.146,-0.0361,-18.293,-62.866,23.049,0.5362,100757.48
1.0547,0.0791,-0.4604,21.402,2.622,-25.61,1.1535,100757.96
1.5425,-0.3496,0.1934,120.305,76.707,-11.524,1.5934,100757.81
1.3545,-0.3662,0.3125,36.707,27.073,-3.963,1.4375,100757.83
1.1113,0.0259,-0.3682,-73.72,-35.976,-17.439,1.171,100757.97
0.8892,0.1328,-0.6445,-50.488,-30.488,9.207,1.1062,100756.62
0.6255,-0.0308,-0.3877,9.695,-12.5,10.976,0.7365,100757.41
0.7661,-0.209,-0.1855,13.415,6.524,-14.634,0.8155,100757.27
1.061,-0.1069,-0.2163,-17.5,-3.476,-26.646,1.0881,100756.92
1.0464,-0.1621,-0.1694,-13.049,-11.829,17.256,1.0723,100756.91
0.6162,-0.1753,0.0972,-14.756,-27.561,32.195,0.648,100756.25
0.894,-0.1738,-0.0713,-24.512,-2.561,-16.829,0.9136,100755.68
1.1943,-0.3105,0.0635,0.0,40.427,-18.902,1.2357,100756.23
1.2407,-0.2124,-0.0215,-24.939,19.146,-17.195,1.259,100756.52
1.022,-0.0439,-0.2988,-33.171,10.427,-6.159,1.0657,100757.22
1.1133,-0.126,-0.1948,6.707,41.463,-0.244,1.1372,100757.27
0.9741,-0.1665,-0.1084,5.549,43.537,3.354,0.9942,100756.58
1.0771,-0.0386,-0.2778,-24.756,33.902,-19.634,1.1131,100756.65
0.98,0.1016,-0.2983,-38.11,-11.585,-25.671,1.0294,100756.82
0.8071,0.1191,-0.3447,-34.512,-53.354,-38.049,0.8857,100756.73
1.0986,-0.0356,-0.2046,17.378,-23.415,3.841,1.1181,100756.52
0.7983,0.0752,0.0542,36.402,-48.659,51.463,0.8037,100756.88
1.1924,-0.4458,0.0967,59.268,-2.256,43.537,1.2767,100756.63
1.0117,-0.0757,0.4053,11.037,-39.634,34.085,1.0925,100757.7
1.0913,0.2998,-0.5967,-54.817,-53.841,-27.622,1.2794,100757.4
1.2383,-0.0781,-0.1616,85.0,33.963,6.829,1.2512,100757.52
0.8447,-0.1079,0.2021,76.159,17.805,34.085,0.8753,100756.85
0.771,0.1338,-0.4141,-6.402,-16.768,-3.415,0.8853,100755.78
0.9004,0.0049,-0.4194,32.866,19.207,2.866,0.9933,100755.44
0.7808,-0.2354,-0.0112,50.915,23.354,11.524,0.8155,100755.44
0.8062,-0.2715,-0.0103,-9.146,4.451,-14.451,0.8507,100756.29
0.9663,-0.1167,-0.1177,-60.427,-12.317,-30.183,0.9804,100756.7
0.9941,0.04,-0.3477,-78.537,-26.707,-2.927,1.0539,100757.01
0.8979,-0.0146,-0.248,-51.707,-37.073,16.585,0.9317,100757.12
0.8604,-0.2217,-0.1777,-13.171,-1.402,13.171,0.9061,100757.06
1.1226,-0.3848,-0.1289,7.927,67.256,-13.902,1.1936,100756.77
1.4888,-0.2354,-0.0298,-9.024,49.024,-33.171,1.5076,100756.44
1.0493,-0.1021,-0.2349,-36.829,21.646,2.317,1.0801,100756.3
1.0796,-0.0562,-0.3159,-19.634,39.39,1.524,1.1263,100755.98
1.1118,-0.0781,-0.1958,1.646,26.159,8.11,1.1316,100755.97
0.6284,-0.1475,-0.0522,-1.829,-19.573,12.988,0.6476,100755.72
0.5293,-0.0532,-0.1333,-23.537,-42.988,-30.915,0.5484,100757.13
1.1123,-0.0181,-0.3809,0.061,-28.841,-52.256,1.1758,100756.85
0.8647,0.0366,-0.0171,64.817,-42.561,14.329,0.8657,100756.88
0.8818,-0.168,-0.1592,78.232,-28.232,9.268,0.9117,100756.91
1.3125,-0.2471,-0.0303,89.268,0.854,32.134,1.3359,100757.02
0.9644,0.2075,-0.1655,34.451,-34.39,21.707,1.0002,100757.51
1.5723,0.0859,-0.4639,59.634,20.61,-27.439,1.6415,100757.62
1.2593,-0.186,0.1836,106.585,33.232,35.0,1.2861,100757.18
0.8032,0.0137,-0.1274,2.622,-37.866,31.037,0.8134,100757.02
0.7866,0.1172,-0.5947,-26.646,-39.146,12.317,0.9931,100756.74
0.8228,-0.1514,-0.3926,29.634,-5.0,16.89,0.9241,100756.43
0.7168,-0.3086,-0.0405,19.817,-24.39,-1.463,0.7815,100756.22
0.8242,-0.2617,-0.2095,-33.415,-33.354,-23.11,0.8898,100756.53
0.8984,-0.1431,-0.2324,-40.183,-24.146,-1.646,0.939,100756.16
0.79,-0.1401,-0.2539,-37.805,-24.024,7.195,0.8416,100755.98
0.8457,-0.2842,-0.1509,-22.317,-5.549,-1.707,0.9048,100756.6
1.1172,-0.2642,-0.2378,-28.963,15.976,-4.024,1.1724,100756.43
1.0845,-0.1514,-0.4478,-35.244,8.841,4.024,1.183,100756.69
1.0811,-0.207,-0.3979,-4.817,24.39,18.598,1.1704,100756.51
0.98,-0.2319,-0.2358,6.829,28.841,30.549,1.0343,100756.97
0.9312,-0.2163,-0.2012,-4.268,23.11,20.915,0.9769,100756.96
0.7095,-0.2554,-0.1372,-16.463,8.963,3.415,0.7664,100757.42
0.8638,-0.146,-0.2119,-31.89,-1.768,-41.037,0.9013,100757.92
1.0459,-0.1875,-0.3003,-16.585,-3.963,-29.085,1.1042,100757.04
0.7217,-0.0474,-0.0718,7.866,-16.585,12.439,0.7268,100757.35
0.9507,-0.0249,-0.3188,6.89,-13.354,0.061,1.003,100757.24
0.8218,-0.0039,-0.0962,47.134,-2.134,36.22,0.8274,100758.16
0.9136,0.1118,-0.1821,40.732,6.585,-9.512,0.9382,100759.22
1.5337,-0.0562,-0.1592,69.146,48.598,-38.72,1.543,100759.12
1.3501,-0.1816,0.1055,63.11,36.646,1.463,1.3663,100759.21
1.2314,-0.0112,-0.3057,-4.634,-0.854,9.634,1.2689,100758.15
0.8774,0.1113,-0.4858,-8.232,-17.866,30.427,1.0091,100757.48
0.7051,-0.0464,-0.4189,17.256,-6.829,17.5,0.8215,100757.23
0.7666,-0.2515,-0.1543,18.659,-1.22,-14.146,0.8214,100757.4
0.9839,-0.2778,-0.231,-28.171,-9.695,-34.634,1.0481,100757.29
0.9946,-0.1382,-0.2778,-58.598,-33.841,-19.817,1.0419,100757.83
0.7954,-0.0024,-0.3755,-60.61,-44.39,-13.171,0.8796,100757.47
0.9961,-0.043,-0.2998,-14.756,-11.829,-25.488,1.0411,100757.47
1.1611,-0.2607,-0.2715,32.012,44.024,-4.207,1.2206,100757.09
1.1255,-0.3779,0.0542,43.659,38.415,13.293,1.1885,100757.67
0.8213,-0.2368,-0.0938,-7.622,7.683,21.585,0.8599,100757.38
0.8296,-0.1436,-0.2451,-14.451,20.0,6.22,0.8769,100757.53
1.0063,-0.2129,-0.1694,13.72,54.573,2.134,1.0425,100757.27
0.959,-0.2368,-0.0522,12.073,51.585,1.768,0.9892,100757.18
0.9727,-0.2715,-0.0903,-10.732,28.11,-17.622,1.0139,100757.6
1.0117,-0.1641,-0.2031,-32.012,-8.11,-32.866,1.0449,100757.31
1.0532,-0.04,-0.3735,-19.878,-33.78,-23.841,1.1182,100757.71
0.7324,0.1309,-0.0962,33.72,-37.988,15.366,0.7502,100757.42
0.9663,-0.2974,0.0366,53.902,-10.732,8.293,1.0117,100756.57
0.8677,0.0156,0.1187,19.085,-27.439,30.671,0.8759,100756.77
0.9473,0.186,-0.4219,-10.122,-18.171,-16.22,1.0535,100757.05
1.4365,-0.2739,-0.1309,74.939,69.695,-21.585,1.4683,100757.28
1.3276,-0.2129,0.1694,30.183,23.902,-4.512,1.3552,100757.68
0.9526,0.1748,-0.5454,-69.268,-47.317,-1.037,1.1116,100757.12
0.8325,0.1948,-0.7446,-18.476,-12.439,16.585,1.1338,100756.83
0.814,-0.0254,-0.3335,47.683,-4.451,19.146,0.88,100756.5
0.6816,-0.1079,-0.0718,30.183,-26.159,18.11,0.6939,100756.21
0.8584,-0.2651,-0.1089,1.341,-19.268,1.159,0.905,100756.28
0.9126,-0.2798,0.123,-13.232,-13.659,6.402,0.9624,100756.31
0.9155,-0.1265,-0.165,-58.476,-20.671,-24.634,0.9388,100756.23
1.2754,-0.0664,-0.3813,-43.171,8.293,-42.378,1.3328,100756.51
1.2471,-0.1646,-0.3408,-1.768,11.159,-12.988,1.3032,100756.72
0.9023,-0.2104,-0.04,13.841,-2.439,15.671,0.9274,100757.15
0.9341,-0.1426,-0.1748,-15.122,1.707,0.61,0.9609,100756.48
1.0625,-0.0215,-0.2725,-5.427,20.183,-4.878,1.0971,100755.98
1.0469,-0.0552,-0.2065,27.866,32.195,0.183,1.0685,100756.56
0.9673,-0.248,-0.0796,44.085,20.976,1.28,1.0017,100756.88
0.8286,-0.2798,-0.0337,21.829,-7.317,-15.305,0.8752,100757.12
1.0601,-0.1382,-0.2207,-7.073,-23.598,-28.963,1.0916,100756.45
0.9272,0.1963,-0.2612,9.573,-36.402,32.866,0.9831,100756.06
0.8022,-0.1221,-0.1987,54.024,-15.549,57.683,0.8355,100757.26
0.9048,-0.2842,0.1958,77.744,-1.098,58.476,0.9684,100757.91
0.9121,0.0029,0.019,-6.585,-30.915,7.805,0.9123,100757.91
1.2695,-0.1743,-0.501,-21.951,11.829,-5.061,1.3759,100757.78
1.0298,-0.2637,-0.1108,15.976,31.341,34.024,1.0688,100757.43
1.106,0.0117,-0.5615,-41.768,4.695,-7.073,1.2404,100756.93
1.1021,0.0161,-0.6953,-14.939,-3.293,-2.317,1.3032,100757.42
0.7979,-0.1772,-0.2876,35.915,-10.671,24.878,0.8664,100757.78
0.481,-0.2163,-0.0596,15.732,-18.78,26.402,0.5307,100757.57
0.7192,-0.2578,-0.2085,-19.024,1.89,-3.415,0.792,100757.27
0.9653,-0.2505,-0.0254,-25.854,2.683,-10.549,0.9976,100756.93
0.8901,-0.207,-0.0361,-50.732,-10.854,-16.28,0.9146,100757.42
1.0444,-0.2251,-0.1885,-39.085,26.22,-29.878,1.0849,100758.27
1.2505,-0.2808,-0.1377,-11.28,53.232,-23.72,1.289,100757.8
1.0303,-0.2451,-0.165,-22.988,28.72,1.28,1.0718,100756.84
0.9116,-0.1621,-0.2661,-35.854,25.61,1.829,0.9634,100757.0
1.1104,-0.1396,-0.314,-25.366,45.976,-14.146,1.1623,100756.75
1.2183,-0.1831,-0.2207,-9.634,56.707,-14.39,1.2516,100757.39
1.0938,-0.1064,-0.1528,-15.488,28.72,-4.146,1.1095,100756.64
0.8735,-0.1152,-0.1729,-17.317,-7.256,-10.976,0.8979,100756.95
0.9434,-0.1504,-0.1782,-1.159,-17.5,-17.012,0.9718,100757.67
1.0088,-0.0889,-0.1245,6.341,-42.744,7.195,1.0203,100757.84
0.9868,0.0029,0.0103,22.988,-48.232,44.573,0.9869,100756.99
0.9556,-0.3335,0.1357,37.195,-17.805,73.049,1.0212,100757.35
0.7197,-0.105,0.2861,-8.354,-27.561,45.183,0.7816,100757.84
1.2529,0.0479,-0.3721,-58.902,-1.341,-58.049,1.3079,100758.96
1.5615,-0.2051,-0.123,20.976,45.976,-37.012,1.5797,100758.45
0.7739,-0.0796,0.1421,-8.78,-8.963,7.805,0.7909,100757.7
0.7339,0.1807,-0.5962,-80.488,-37.012,-20.854,0.9626,100757.26
0.6943,0.2061,-0.5718,-24.146,-12.134,0.244,0.9228,100756.93
0.7192,-0.0264,-0.3335,17.256,-10.732,3.963,0.7932,100756.8
0.6816,-0.1704,-0.0913,17.622,-26.646,-2.256,0.7085,100757.18
0.9409,-0.1699,-0.1387,-6.89,-22.561,-20.61,0.9661,100758.21
1.1655,-0.1265,-0.1245,-13.598,-29.451,-10.305,1.179,100757.77
0.8574,-0.2178,-0.2017,-3.78,-23.902,19.39,0.9073,100757.56
0.8213,-0.3247,-0.166,11.707,13.598,23.11,0.8986,100758.0
1.061,-0.2822,-0.2144,-4.878,31.402,0.366,1.1187,100757.25
1.3501,-0.1885,-0.3564,-18.354,33.232,-18.171,1.409,100756.65
1.1265,-0.2788,-0.2734,-3.232,43.841,14.329,1.1922,100756.84
1.1304,-0.3032,-0.1572,-6.159,54.146,9.207,1.1808,100756.84
1.123,-0.2222,-0.1821,-25.488,31.159,-9.39,1.1592,100757.98
0.9038,-0.1177,-0.3086,-16.159,-1.524,-20.915,0.9623,100757.84
0.9819,-0.0669,-0.1865,15.671,-22.012,0.122,1.0017,100758.08
0.7832,0.0508,-0.041,28.72,-38.72,37.012,0.7859,100757.63
0.9746,-0.1655,-0.0669,38.11,-30.488,42.439,0.9908,100758.18
0.6138,-0.0273,0.2119,25.0,-45.793,49.512,0.6499,100758.36
0.9683,0.1147,-0.4277,-18.171,-7.073,-48.902,1.0647,100757.36
1.811,-0.0215,-0.1782,65.183,58.537,-76.524,1.8199,100757.38
1.3042,-0.0728,0.123,64.512,40.671,2.073,1.312,100756.75
1.1436,-0.0054,-0.3159,3.963,-1.524,-9.512,1.1864,100757.02
0.9546,0.0654,-0.374,3.598,-35.976,-0.915,1.0273,100756.24
0.5474,-0.021,-0.3843,13.293,-46.768,13.902,0.6691,100756.4
0.5566,-0.209,-0.2749,27.439,-24.39,-4.451,0.6551,100756.13
1.0161,-0.1997,-0.0791,-3.476,-31.22,-6.89,1.0386,100756.06
0.937,-0.2085,-0.1582,-13.049,-30.915,2.744,0.9729,100755.76
0.8911,-0.2993,-0.1343,9.817,12.134,8.415,0.9496,100755.66
1.0781,-0.2456,-0.1421,4.207,32.927,-11.402,1.1148,100756.32
1.1011,-0.1895,-0.2021,-8.659,25.305,-18.11,1.1354,100755.58
0.8931,-0.2393,-0.1978,-1.28,39.512,0.427,0.9455,100755.41
0.8755,-0.25,-0.144,2.927,61.585,0.183,0.9218,100755.51
0.9976,-0.1382,-0.1128,-14.573,58.354,-19.695,1.0134,100755.74
1.0972,-0.1978,-0.1616,-31.159,46.829,-34.878,1.1265,100755.62
1.0698,-0.1992,-0.1509,-45.183,13.537,-36.89,1.0986,100755.68
1.4097,-0.0068,-0.3135,-60.488,-41.22,-48.354,1.4441,100755.09
1.2554,0.1221,-0.1704,-23.476,-69.573,37.561,1.2728,100755.41
0.9409,-0.0303,-0.1855,38.293,-23.659,43.902,0.9595,100755.95
1.0796,0.0908,0.0522,49.024,-8.72,6.646,1.0847,100755.18
1.1953,-0.0864,-0.208,44.329,14.634,-2.988,1.2164,100755.45
1.0649,-0.1924,0.1528,48.354,0.244,28.476,1.0929,100755.88
0.8076,-0.0693,-0.1416,-22.927,-44.146,34.512,0.8229,100757.23
0.7876,0.1338,-0.3779,-40.671,-57.744,35.0,0.8838,100757.21
0.6616,0.0679,-0.5068,-8.963,-41.89,51.159,0.8362,100756.88
0.7529,-0.1289,-0.4199,40.061,-21.524,37.5,0.8717,100756.76
0.9272,-0.23,-0.2002,53.841,-15.671,17.683,0.9761,100756.53
0.8125,-0.2632,-0.1772,25.915,-19.756,20.976,0.8723,100756.24
0.6152,-0.3721,-0.1157,5.366,-4.634,7.317,0.7282,100755.66
0.8311,-0.3354,-0.0234,-9.756,13.171,-49.268,0.8965,100756.19
0.9614,-0.1787,-0.0879,-20.427,36.829,-75.488,0.9818,100756.49
1.167,-0.1802,-0.2954,-0.732,77.134,-89.329,1.2172,100756.57
1.4487,-0.2793,-0.1909,35.854,86.829,-62.256,1.4877,100756.52
1.0171,-0.2935,-0.1084,24.939,53.171,19.329,1.0641,100757.23
0.7695,-0.3179,-0.1377,-8.659,41.037,34.146,0.8439,100757.01
