ax,ay,az,gx,gy,gz,avm,pressure
1.4785,-0.1875,-0.0371,16.28,14.939,3.415,1.4908,100766.34
1.6162,-0.1133,0.0635,24.634,37.439,-11.402,1.6214,100766.93
1.4541,-0.0156,0.0122,4.329,25.427,-12.988,1.4542,100766.89
0.9019,0.0312,0.0776,-19.756,-1.037,7.073,0.9057,100766.84
0.6147,0.0034,-0.25,-27.439,-20.854,9.085,0.6636,100766.45
0.6094,0.0381,-0.0571,12.683,14.878,-2.439,0.6132,100766.51
0.6069,0.1104,-0.0981,1.646,9.451,8.232,0.6246,100766.18
0.6885,0.1587,-0.2505,-3.537,-15.183,27.317,0.7496,100765.7
0.8823,0.1377,-0.4492,20.732,-33.11,24.634,0.9996,100765.23
1.4385,-0.0493,0.1914,86.89,-6.463,-1.098,1.452,100765.34
1.4814,0.0005,0.2207,60.244,-17.134,-8.659,1.4978,100765.92
1.542,-0.1567,-0.2632,27.378,-46.463,-24.634,1.5721,100765.99
1.3643,-0.1152,0.0459,64.146,-11.829,-18.902,1.3699,100766.3
0.8164,-0.0537,0.3281,46.098,3.659,-4.329,0.8815,100766.27
0.6138,-0.1255,-0.0781,-25.0,-41.768,-3.11,0.6313,100766.5
0.4824,-0.1284,-0.3379,-47.134,-55.061,8.78,0.6028,100766.41
0.5303,-0.103,-0.2964,-36.037,-43.537,20.122,0.6162,100766.48
0.8789,-0.1479,-0.4004,-33.171,-39.146,31.159,0.9771,100765.43
1.2031,-0.2822,-0.1895,-1.829,-20.976,32.439,1.2502,100765.38
1.373,-0.3105,0.0605,-7.073,-7.256,27.439,1.409,100765.09
1.291,-0.1763,-0.2847,-47.195,-0.671,13.598,1.3337,100765.36
1.0469,-0.1021,-0.3457,-22.988,46.159,0.122,1.1072,100764.35
0.5337,-0.0181,-0.1084,-9.817,63.78,-4.207,0.5449,100764.68
0.5303,-0.0479,-0.1899,-27.805,38.476,-19.207,0.5653,100765.32
1.1851,-0.022,-0.1812,32.561,30.793,-6.646,1.199,100764.75
1.4316,0.1416,0.4429,72.561,0.549,-19.268,1.5053,100764.74
1.7515,0.0,-0.0845,10.549,-52.5,-34.024,1.7535,100764.86
1.3877,-0.0137,-0.3047,22.622,-2.256,-16.098,1.4208,100765.06
0.813,0.0913,0.2637,44.451,37.744,-7.134,0.8595,100765.2
0.7632,-0.064,-0.1011,-26.585,13.11,-27.683,0.7725,100766.04
0.8071,-0.2139,-0.5737,-40.793,-14.817,-16.463,1.0131,100766.32
0.5874,-0.1172,-0.1777,8.537,-0.732,25.793,0.6248,100766.16
0.5171,-0.1367,-0.0298,4.329,-15.61,45.366,0.5357,100765.78
1.1841,-0.0933,-0.0176,-10.549,-21.707,37.683,1.1879,100765.88
1.4731,-0.2314,-0.0581,-24.512,4.634,36.89,1.4923,100765.86
1.4858,-0.2837,-0.3105,-20.976,7.378,24.146,1.5442,100766.2
1.6968,-0.0479,0.8374,8.841,36.22,-9.878,1.8928,100765.34
1.2417,-0.1128,-0.2212,-96.768,-38.171,-0.61,1.2663,100765.2
0.6777,-0.0381,-0.1943,-56.098,-16.159,7.073,0.7061,100764.82
0.2549,0.1045,0.019,-36.037,-2.134,0.854,0.2761,100765.15
0.4434,0.043,-0.5962,-47.195,-53.963,1.402,0.7442,100764.3
0.4268,0.0576,-0.4175,26.951,-6.402,26.829,0.5998,100763.77
0.5693,0.1299,0.2646,71.22,48.78,24.329,0.6411,100763.99
1.2383,0.1304,0.4043,25.732,13.72,-9.756,1.3091,100764.52
1.686,-0.1011,-0.2534,-14.817,-36.402,-19.634,1.708,100765.07
1.3828,0.0151,-0.2734,45.427,-13.537,-15.0,1.4097,100765.97
1.2871,-0.0459,-0.1802,70.61,-9.024,-44.573,1.3005,100764.87
0.8701,-0.1279,-0.1035,58.476,22.256,-17.866,0.8855,100764.82
0.5444,-0.1777,-0.1562,33.11,-4.207,3.963,0.5936,100764.52
0.5967,-0.1294,0.0762,18.049,-5.793,15.183,0.6153,100764.34
0.5952,-0.1997,-0.0913,-32.317,-22.378,33.72,0.6344,100763.66
0.8896,-0.2661,-0.4116,-53.78,-23.293,43.537,1.0157,100764.18
0.9424,-0.3262,0.1162,1.829,37.134,33.11,1.004,100764.55
1.3408,-0.3247,0.3052,-19.268,1.037,-0.793,1.4129,100766.07
1.7983,-0.2041,0.0,-61.098,25.061,-17.622,1.8099,100765.74
1.3916,-0.1157,-0.1147,-60.549,36.768,-10.549,1.4011,100765.02
0.8135,0.0142,-0.2183,-57.378,13.11,-11.402,0.8424,100765.55
0.5908,0.0786,-0.2026,-48.841,9.39,-17.256,0.6295,100765.95
0.0811,0.1807,-0.2466,-45.305,10.976,-17.256,0.3162,100765.75
0.3652,0.1631,-0.3481,-45.976,-30.732,-44.207,0.5303,100765.61
0.9517,0.0415,-0.4727,-16.768,-20.915,-35.915,1.0634,100765.27
1.4175,0.1509,-0.1509,44.085,0.305,-8.232,1.4335,100764.77
1.8599,-0.0879,0.1904,84.756,-10.305,3.963,1.8717,100765.62
1.4062,-0.0127,0.4097,85.671,-1.768,26.098,1.4648,100765.89
1.2437,-0.0107,0.0605,22.012,-26.768,-2.073,1.2452,100764.99
1.4126,-0.1011,-0.4961,-19.939,-31.159,-21.098,1.5006,100764.55
0.8115,-0.0581,-0.4585,17.5,6.402,8.72,0.9339,100764.48
0.3276,-0.0303,-0.1597,35.671,9.634,23.354,0.3657,100765.03
0.0879,-0.0742,-0.2354,5.854,-6.585,12.805,0.262,100764.95
0.4922,-0.1323,-0.1436,-6.159,-17.195,0.122,0.5295,100764.78
0.7935,-0.1162,-0.1411,-27.073,-43.049,32.073,0.8142,100765.26
1.3638,-0.4204,-0.3438,-44.939,-19.878,44.39,1.4679,100764.75
1.6274,-0.7168,-0.2227,-16.89,18.11,54.817,1.7922,100764.39
1.2158,-0.4263,0.2158,13.902,47.988,47.073,1.3063,100765.2
1.4785,-0.167,0.2944,-38.78,16.707,-21.341,1.5168,100764.72
1.0967,-0.0654,-0.4067,-96.768,-11.829,-23.171,1.1715,100765.09
0.5903,0.0864,-0.0825,-39.451,15.366,-10.915,0.6023,100764.85
0.293,0.1909,-0.1748,-47.561,0.976,-15.366,0.3909,100765.18
0.2573,0.1328,-0.6143,-52.378,-17.195,-28.537,0.6791,100765.54
0.7563,0.1533,-0.3145,-3.232,-8.049,-36.402,0.8333,100765.7
0.9814,0.2173,-0.4219,15.976,-6.646,-14.024,1.0901,100765.19
1.459,0.0176,-0.0142,87.439,23.598,-20.183,1.4592,100765.67
1.6772,0.126,0.5806,102.073,45.366,-21.585,1.7793,100765.53
1.7471,-0.0366,-0.0449,21.646,-10.549,-24.695,1.748,100765.2
1.2227,-0.0283,-0.5835,16.89,20.305,-3.415,1.355,100765.3
0.5347,0.0786,-0.0166,78.11,75.122,7.744,0.5407,100765.88
0.3867,-0.0283,0.0127,44.207,25.366,-0.488,0.388,100766.05
0.5347,-0.1626,-0.332,8.659,-19.085,-2.012,0.65,100767.05
0.8179,-0.1157,-0.0718,12.866,-1.585,7.5,0.8291,100766.12
0.9282,-0.104,-0.2173,-20.854,-20.976,29.329,0.959,100766.0
1.2285,-0.1318,-0.2695,-7.805,-9.695,27.988,1.2646,100765.68
1.2822,-0.146,0.3213,28.11,30.427,20.0,1.3299,100765.19
1.436,-0.0737,0.2358,-16.951,27.683,-3.598,1.4571,100764.84
1.5708,-0.0781,-0.1445,-54.085,-3.11,-14.695,1.5794,100765.17
1.1162,-0.0605,-0.1655,-36.951,-15.122,-2.927,1.13,100765.29
0.897,0.0273,-0.0337,-21.402,-17.927,2.683,0.898,100764.55
0.4644,0.0049,-0.4614,-43.232,-11.22,10.854,0.6546,100764.73
0.3447,0.022,-0.5049,-18.354,-4.085,4.207,0.6117,100764.97
0.4829,0.0537,-0.1284,24.329,9.39,4.329,0.5026,100764.77
0.8765,0.0342,-0.1094,29.573,-4.573,13.171,0.8839,100764.39
1.4092,-0.0767,0.0054,63.11,2.195,24.512,1.4113,100764.95
1.1108,0.2144,0.8389,92.744,48.293,26.22,1.4084,100765.23
1.563,0.0464,0.1343,-27.012,-46.402,-33.537,1.5694,100766.55
1.8262,-0.0859,-0.6387,-39.207,-49.573,-29.939,1.9365,100766.19
0.7764,0.1279,-0.0498,70.793,62.866,11.951,0.7884,100766.41
0.5215,0.0425,0.0532,45.244,53.659,0.183,0.5259,100766.72
0.5049,-0.1162,-0.5518,4.268,11.768,-3.963,0.7569,100766.72
0.7207,-0.04,-0.1313,42.927,14.329,-3.963,0.7337,100765.59
0.957,-0.1484,0.0635,11.341,-15.183,12.805,0.9706,100764.77
1.1699,-0.0693,-0.1055,-23.902,-53.537,41.707,1.1767,100765.13
1.1636,0.0708,-0.3115,-7.439,-70.61,50.549,1.2066,100764.77
1.0635,-0.0386,-0.3423,42.805,-27.134,30.244,1.1179,100765.37
1.1987,-0.0181,0.438,101.707,19.39,-4.756,1.2764,100765.08
1.3945,-0.1504,0.2305,30.976,-0.61,-24.329,1.4214,100764.65
1.1553,-0.1104,-0.2031,2.439,15.427,-13.78,1.1782,100764.8
0.9585,-0.0513,0.3184,50.244,36.768,-10.0,1.0113,100764.91
0.6133,-0.0811,0.1016,14.695,9.512,-6.402,0.6269,100765.35
0.4521,-0.0581,-0.3525,-4.756,-9.939,-9.939,0.5763,100766.07
0.7432,0.0103,-0.4473,27.927,-14.878,-7.195,0.8674,100766.12
0.9551,0.1611,-0.2437,74.268,-6.707,5.915,0.9988,100765.41
1.4268,0.1006,-0.0479,102.5,7.378,4.207,1.4311,100765.12
1.0708,0.1387,0.0767,113.598,21.341,25.915,1.0825,100764.55
1.2495,0.0205,0.2393,115.671,-25.366,-15.0,1.2724,100764.48
1.6851,0.0283,0.4521,84.329,-15.305,-33.963,1.7449,100764.3
0.8486,0.063,0.1523,33.537,39.024,-5.549,0.8645,100764.42
0.6714,-0.0474,-0.292,4.573,-1.829,-16.22,0.7337,100764.9
0.3105,0.0137,-0.1729,65.427,2.073,16.402,0.3557,100764.99
0.5107,-0.0732,-0.335,44.329,-22.195,2.378,0.6152,100765.7
1.0317,-0.0708,-0.0576,43.11,-31.585,1.951,1.0358,100765.27
1.1714,-0.0635,0.145,42.256,-23.963,10.976,1.182,100765.39
1.3071,-0.1333,-0.0928,22.439,-24.939,-4.817,1.3172,100765.01
1.7656,-0.0938,-0.0967,28.293,-10.854,-27.866,1.7708,100764.71
1.7539,-0.083,-0.2666,25.793,11.28,-19.939,1.776,100764.62
1.0742,0.042,-0.0171,65.854,42.439,0.976,1.0752,100764.44
0.7988,0.0957,0.5161,70.61,41.829,-12.561,0.9559,100763.8
0.7764,-0.022,0.061,-5.122,-0.671,-28.659,0.7791,100763.91
0.834,-0.0283,-0.1514,-14.756,-2.805,-30.549,0.8481,100764.02
0.7441,0.0088,-0.2241,-2.439,-13.598,-10.793,0.7772,100764.34
0.6548,0.0854,-0.5928,11.463,-40.793,9.329,0.8874,100764.47
0.9946,0.1865,-0.2178,75.122,-20.244,8.659,1.0351,100763.68
1.5771,0.1685,0.1172,95.854,-12.012,12.256,1.5904,100763.84
1.0972,0.1108,-0.4927,68.841,-8.293,36.402,1.2078,100764.47
0.9341,0.1196,0.0151,136.89,36.463,1.28,0.9418,100764.44
1.3184,0.1738,0.7104,123.232,5.854,-27.622,1.5077,100765.27
0.9346,0.0205,0.0767,3.293,-37.073,-3.963,0.9379,100765.54
0.5903,-0.0591,-0.2983,-29.756,-24.878,-5.732,0.6641,100766.1
0.54,0.0234,-0.2505,-12.378,-43.049,-13.354,0.5958,100766.02
0.625,-0.0298,-0.7568,-26.341,-74.207,-7.866,0.982,100765.01
0.9526,-0.0156,-0.5195,33.659,-24.634,-6.341,1.0852,100765.23
1.1416,-0.0752,0.374,89.451,33.537,1.402,1.2037,100764.89
1.1733,-0.1055,0.2222,19.878,-3.659,16.951,1.1988,100765.13
1.0352,-0.1074,-0.3687,-21.89,-15.61,6.951,1.1041,100764.57
1.3608,-0.1279,-0.3833,11.585,10.976,-34.268,1.4196,100764.14
1.4434,-0.02,0.0669,50.671,54.268,-42.134,1.445,100764.08
0.8652,0.0308,0.0205,26.402,52.317,-19.024,0.866,100765.37
0.646,0.0107,-0.1514,3.598,1.402,-17.744,0.6636,100765.48
0.6196,0.0024,-0.1758,4.695,-3.293,-19.024,0.6441,100765.08
0.7778,-0.0415,-0.2183,10.061,9.39,-14.268,0.8089,100765.89
1.0776,0.0098,-0.1665,34.39,12.622,-1.159,1.0905,100766.35
1.2212,-0.0376,-0.0132,67.134,11.585,14.207,1.2218,100765.98
1.0503,0.1313,0.0098,71.951,-0.488,22.744,1.0585,100766.3
1.1587,0.0269,-0.3569,56.22,-9.024,-3.293,1.2127,100766.18
1.6074,-0.0332,0.0361,87.378,12.256,-23.537,1.6082,100766.2
1.103,0.0356,0.3477,53.72,28.171,5.732,1.1571,100766.1
0.689,-0.0898,-0.3057,-30.61,-23.049,9.207,0.7591,100766.02
0.6885,-0.2148,-0.5342,-27.073,-25.732,3.171,0.8975,100765.71
0.4761,-0.0063,0.0791,6.524,4.634,14.695,0.4826,100765.74
0.4248,-0.0088,-0.2915,-62.866,-58.415,26.768,0.5153,100765.75
0.9893,-0.1748,-0.4858,-52.256,-60.671,10.366,1.1159,100766.62
1.5615,-0.3315,0.4395,22.195,4.634,1.098,1.6557,100766.8
1.0132,-0.0454,0.3237,-45.244,16.768,14.756,1.0646,100766.32
1.3442,-0.0186,-0.3262,-121.89,-40.671,-32.988,1.3834,100766.31
1.5742,-0.0625,-0.6938,-109.695,-32.073,-35.122,1.7215,100766.78
0.8076,0.0259,-0.25,-30.793,32.561,-3.293,0.8458,100766.28
0.4097,0.0547,-0.1016,-25.366,7.988,-2.988,0.4256,100765.7
0.4385,0.0054,-0.4355,-35.122,-4.024,-10.061,0.6181,100765.36
0.6421,0.0156,-0.2578,18.72,48.171,-6.829,0.6921,100765.95
0.9912,0.1304,0.021,51.89,56.829,5.915,1.0,100765.79
1.3467,0.0615,-0.041,58.232,3.415,7.805,1.3487,100765.29
1.4229,0.2461,0.0479,65.793,-6.585,2.073,1.4448,100765.3
1.4971,0.1631,-0.2422,44.573,-29.939,-10.061,1.5253,100765.8
1.3535,0.1147,-0.23,54.878,-15.732,-5.122,1.3777,100765.91
0.8862,0.0991,0.0117,56.22,20.976,9.817,0.8918,100766.23
0.6904,-0.0601,-0.0747,21.89,17.378,10.854,0.6971,100766.12
0.5322,-0.1514,-0.2412,0.366,-0.244,19.939,0.6036,100765.68
0.667,-0.1294,-0.1416,0.915,-19.756,25.305,0.694,100765.81
1.1577,-0.1543,-0.0552,-18.415,-21.159,38.537,1.1693,100764.84
0.9941,-0.1362,-0.3257,-30.671,0.183,63.72,1.055,100764.45
1.0449,-0.2212,0.1064,6.037,25.488,43.171,1.0734,100764.18
0.957,-0.1294,-0.0464,-29.451,22.073,19.329,0.9669,100765.06
1.1851,-0.0454,-0.0674,-38.963,4.207,-22.256,1.1878,100765.27
1.1909,-0.0825,-0.2705,-48.963,-3.415,-38.354,1.224,100765.04
0.8716,-0.0493,-0.1914,-13.902,32.683,-33.171,0.8937,100765.98
0.7119,0.0088,0.187,15.305,39.756,-24.695,0.7361,100765.59
0.5327,-0.0586,0.0112,-18.354,7.012,-15.305,0.536,100765.27
1.0254,0.0356,-0.2974,-6.829,-28.049,-2.073,1.0682,100765.31
1.1489,-0.0015,-0.4258,35.366,-11.037,-2.317,1.2253,100764.45
1.4028,0.0767,0.2329,101.402,5.183,-12.622,1.4241,100764.43
1.1831,0.1548,0.1392,66.28,-3.415,-24.024,1.2013,100765.03
1.6167,0.0586,-0.4092,22.866,-53.78,-50.976,1.6687,100764.74
1.269,0.083,-0.2993,51.22,17.683,-7.561,1.3065,100764.89
0.3145,0.0747,-0.0591,56.89,59.329,32.256,0.3286,100765.12
0.3208,-0.0483,-0.0205,24.634,15.427,11.768,0.3251,100765.53
0.7451,-0.1255,-0.0366,-7.5,-13.232,-1.768,0.7565,100765.72
1.1016,-0.1108,0.002,-35.671,-28.902,14.756,1.1071,100765.74
1.0425,-0.0601,-0.2461,-62.805,-59.146,44.329,1.0728,100765.74
1.1494,-0.2354,-0.3579,-37.195,-33.78,37.256,1.2266,100765.53
1.0728,-0.1455,-0.104,-3.72,17.378,29.878,1.0876,100765.59
1.1147,-0.0039,0.1274,-11.402,43.293,0.854,1.122,100765.04
1.3525,-0.0635,-0.1479,-53.72,13.659,-27.439,1.3621,100765.23
1.2153,-0.0264,-0.1396,-39.146,22.561,-21.524,1.2236,100765.26
0.8823,-0.0254,0.0259,-17.317,39.939,3.415,0.8831,100764.91
0.4937,-0.0503,-0.1016,-24.817,27.5,27.012,0.5065,100764.93
0.2202,-0.0151,-0.2344,-22.866,16.89,28.72,0.322,100764.75
0.7983,0.0708,0.0015,-5.671,8.72,-1.585,0.8015,100764.64
1.208,-0.0107,-0.2427,-15.061,-3.232,-6.951,1.2322,100765.19
1.2642,-0.0728,-0.3267,26.951,2.805,-1.463,1.3077,100766.31
1.4067,0.1274,0.229,73.902,-4.268,-13.537,1.4309,100765.95
1.5918,-0.02,-0.355,25.244,-30.488,-20.976,1.631,100765.68
1.1641,0.0127,-0.3242,70.0,21.22,-1.768,1.2084,100765.23
0.5972,0.0923,0.3223,104.268,46.646,6.829,0.6848,100765.37
0.7212,-0.0762,0.2695,33.232,-2.927,-9.451,0.7737,100765.84
0.6069,-0.1787,-0.1768,-36.037,-37.317,2.927,0.6569,100766.21
0.7729,-0.1392,-0.0342,-40.915,-38.537,5.305,0.7861,100765.38
1.1177,-0.1685,-0.2656,-68.11,-52.195,17.073,1.1611,100765.11
0.938,-0.3188,-0.3911,-29.268,0.976,40.0,1.0651,100765.29
0.5781,-0.0522,0.2251,35.671,55.305,29.451,0.6226,100765.27
1.1709,0.0737,0.4673,-2.683,19.085,-49.756,1.2629,100764.67
1.791,-0.0771,-0.1577,-80.732,-53.659,-84.39,1.7996,100764.97
1.6323,-0.1177,-0.3208,-59.024,-22.622,-54.634,1.6677,100765.41
1.1299,-0.1377,-0.3135,-11.707,24.329,-7.927,1.1806,100766.12
0.5645,-0.1084,-0.2178,16.89,35.61,28.232,0.6146,100765.92
0.376,-0.0518,-0.0811,22.805,14.939,32.988,0.3881,100765.77
1.2104,-0.0391,-0.1089,-15.427,-36.037,21.707,1.216,100765.89
0.9268,-0.0386,-0.2158,12.073,-15.122,21.768,0.9523,100765.25
1.2012,0.0728,-0.1504,40.671,-21.402,-7.195,1.2127,100765.52
1.4463,-0.0137,-0.1704,52.378,-1.707,-23.598,1.4564,100765.45
1.0259,0.0278,-0.0562,58.293,22.378,-8.963,1.0278,100765.66
0.603,0.0396,0.0146,40.244,18.78,0.915,0.6045,100765.58
0.4854,-0.0464,-0.1035,8.049,10.061,-3.354,0.4984,100765.38
0.5249,-0.1128,-0.1904,-17.744,0.305,-5.915,0.5697,100765.73
1.0117,-0.1641,-0.0815,-37.5,-18.78,-3.415,1.0282,100765.13
1.1577,-0.1162,-0.2744,-67.195,-32.744,28.902,1.1955,100765.3
1.2695,-0.186,-0.2554,-26.341,-2.256,38.598,1.3083,100765.8
1.2432,-0.2466,-0.1265,9.573,26.89,42.866,1.2737,100765.82
0.8853,-0.0776,0.271,26.28,60.366,15.61,0.9291,100766.44
1.3145,-0.1162,0.2305,-27.256,15.671,-44.634,1.3396,100766.78
1.2725,-0.1851,-0.4292,-65.671,-6.098,-46.28,1.3556,100765.68
0.8711,-0.1099,-0.2261,-0.732,30.549,-21.159,0.9066,100765.73
0.5342,-0.0708,-0.04,15.61,16.707,-4.573,0.5403,100765.88
0.3975,-0.0811,-0.1631,-1.768,-10.244,-2.622,0.4372,100767.09
0.832,-0.0068,0.0864,1.463,-10.488,-4.146,0.8365,100766.64
1.1753,0.0728,0.0381,-13.171,-27.744,3.232,1.1782,100767.16
1.4438,-0.127,-0.2852,-4.573,-45.732,0.366,1.4772,100767.32
1.5239,0.0605,-0.1055,44.939,-24.878,4.39,1.5288,100767.56
1.2095,-0.0146,-0.2681,54.39,-19.39,-0.61,1.2389,100767.73
1.2358,-0.0347,0.0913,72.927,-11.524,-18.598,1.2397,100767.87
0.7266,-0.0015,0.1035,34.817,-8.78,-3.049,0.7339,100767.09
0.5264,-0.0923,-0.2207,-13.049,-31.28,2.195,0.5782,100767.4
0.6973,-0.1201,-0.2925,-21.22,-13.841,5.305,0.7656,100767.01
0.4536,-0.1011,-0.2368,-22.561,-2.073,22.073,0.5216,100767.31
0.5796,-0.1025,-0.3032,-36.829,-25.427,19.756,0.6621,100766.96
1.1108,-0.1147,0.0923,-24.329,-6.098,0.976,1.1206,100767.16
1.3154,-0.2646,-0.1431,-56.037,2.866,6.89,1.3494,100766.46
1.2334,-0.0454,-0.1675,-39.512,33.354,7.073,1.2455,100766.9
1.6821,-0.0967,-0.0601,-38.415,28.72,-29.207,1.686,100766.41
1.5483,-0.1548,-0.4897,-50.793,15.122,-16.89,1.6313,100766.14
0.9126,-0.019,0.0576,3.902,56.89,10.305,0.9146,100766.68
0.4976,0.0342,0.0542,-28.902,36.159,17.622,0.5017,100766.96
0.3882,-0.0811,-0.543,-67.073,-11.28,16.037,0.6724,100766.29
0.5796,-0.0391,-0.4277,-17.378,-0.427,11.951,0.7214,100766.41
0.7954,0.0137,0.1099,34.207,14.207,1.585,0.8031,100765.88
1.4844,-0.1011,0.3955,21.707,-26.22,-24.695,1.5395,100765.62
1.772,-0.0322,-0.3188,-24.39,-53.293,-6.524,1.8007,100765.78
1.2383,0.0264,-0.5312,38.659,-15.366,16.768,1.3477,100765.77
1.0376,0.126,0.2251,109.085,22.012,7.988,1.0692,100765.42
0.6104,0.0874,0.4121,49.634,14.39,7.134,0.7416,100765.28
0.4468,-0.0288,-0.1553,-41.037,-21.89,-5.976,0.4739,100764.44
0.5459,-0.0654,-0.3633,-51.037,-10.061,-11.22,0.659,100765.38
0.5786,-0.0615,-0.4585,-34.878,18.537,1.829,0.7408,100764.76
0.9272,-0.0889,-0.4868,-16.707,-2.317,15.244,1.051,100764.9
1.3379,-0.0649,-0.0757,27.866,33.171,9.939,1.3416,100764.89
1.4985,-0.2129,0.0312,24.573,42.805,4.817,1.5139,100765.01
1.6025,-0.105,0.0776,27.378,21.037,-4.146,1.6078,100765.09
1.522,-0.0947,0.3257,20.061,15.427,-13.598,1.5593,100765.77
0.9966,-0.1533,-0.2124,-28.049,9.146,-5.366,1.0304,100765.77
0.6851,-0.1182,-0.1167,3.78,19.634,0.0,0.7049,100766.15
0.4541,-0.0425,-0.0244,7.073,3.476,10.427,0.4567,100765.71
0.3408,-0.0488,-0.2207,-9.573,-20.244,14.695,0.409,100765.36
0.8315,0.0151,-0.0122,5.427,-0.793,11.159,0.8318,100765.48
0.9829,0.1147,-0.2002,8.902,-4.39,19.878,1.0096,100765.55
1.4336,0.0303,0.106,64.512,-16.951,-5.0,1.4378,100765.75
1.6748,0.1846,0.3633,69.512,-31.524,-15.732,1.7237,100765.87
1.459,0.0571,-0.3862,21.22,-14.39,-12.073,1.5103,100765.85
1.1523,0.0938,0.1001,79.329,43.232,-0.488,1.1605,100765.58
0.5503,0.0732,0.48,50.0,25.061,22.744,0.7339,100764.9
0.1885,-0.1343,-0.2632,-57.195,-10.122,12.805,0.3505,100764.88
0.4346,-0.1958,-0.5581,-59.207,-23.598,-3.415,0.7339,100764.97
0.7979,-0.1797,-0.1416,-13.476,7.744,2.622,0.83,100765.29
0.9146,-0.187,-0.1255,-21.89,-21.037,32.988,0.9419,100765.42
1.1221,-0.2476,-0.0332,-7.683,-43.659,34.39,1.1495,100765.27
1.4097,-0.3271,0.2676,-8.049,3.354,7.683,1.4717,100765.9
1.436,-0.189,0.1919,-51.707,16.341,-18.171,1.4611,100766.62
1.687,-0.167,0.0659,-82.866,9.268,-41.829,1.6965,100765.82
1.2954,-0.3145,-0.5835,-88.11,21.646,-15.427,1.4551,100764.95
0.8418,-0.2231,0.021,7.256,42.744,7.805,0.8711,100764.53
0.4185,-0.0508,0.4194,2.256,34.573,15.488,0.5947,100764.6
0.2563,0.001,-0.0562,-67.012,7.012,10.0,0.2624,100764.79
0.416,0.1304,-0.2334,-57.073,1.829,2.073,0.4945,100764.91
0.8091,0.189,-0.1553,-12.561,-4.146,-16.098,0.8452,100765.25
1.2222,0.0088,-0.3491,27.134,-58.049,-27.683,1.2711,100765.01
1.3252,0.2905,0.1064,98.232,-33.963,-38.049,1.3608,100765.8
1.9736,0.1655,-0.1621,83.293,-45.976,-49.573,1.9872,100765.77
1.3633,0.1431,-0.5806,90.732,-12.866,-12.805,1.4886,100766.16
0.9814,0.1445,0.1045,138.72,46.585,-12.561,0.9975,100766.03
1.0933,-0.0835,0.1182,79.573,15.793,-5.427,1.1028,100765.72
0.5454,-0.1982,-0.1724,24.756,-10.488,31.463,0.6054,100766.58
0.5425,-0.1792,-0.1709,-5.305,-43.415,39.146,0.5963,100766.12
0.8286,-0.2178,-0.3613,-31.28,-55.0,50.183,0.9298,100766.39
1.0371,-0.3398,0.4858,21.829,3.902,25.122,1.1946,100767.34
0.8462,-0.2183,0.0879,-43.11,2.073,-4.512,0.8783,100767.67
1.8052,-0.1768,-0.0273,-62.683,-2.805,-67.927,1.814,100767.68
1.4995,-0.1953,-0.4346,-66.28,32.866,-38.659,1.5734,100768.18
0.8262,-0.0693,0.0425,2.683,71.402,-11.524,0.8302,100767.08
0.7422,-0.0679,0.0186,-24.756,31.098,-3.659,0.7455,100766.61
0.3994,-0.0649,-0.2578,-49.695,23.232,10.549,0.4798,100766.87
0.519,0.0913,0.0249,-28.537,13.537,9.756,0.5276,100767.08
0.9912,0.2471,0.1704,-40.671,-0.061,8.354,1.0357,100766.97
1.3037,-0.0825,-0.5674,-57.439,-16.463,7.134,1.4242,100766.28
1.4707,0.1035,-0.001,68.841,1.951,10.488,1.4743,100766.12
1.5054,0.1602,0.0742,87.927,-23.415,-3.232,1.5157,100766.76
1.8296,0.0283,-0.5449,65.732,-49.329,-8.78,1.9092,100765.88
0.8784,0.1948,0.0752,143.049,34.756,29.024,0.9029,100766.31
0.2744,0.1372,0.5161,103.72,21.89,18.841,0.6004,100766.16
0.5249,-0.1514,-0.2744,-30.61,-43.232,-7.439,0.6113,100766.29
0.4805,-0.2119,-0.4639,-32.5,-22.927,4.939,0.7007,100766.26
0.499,-0.2148,0.0889,-4.817,-8.72,14.207,0.5505,100766.48
0.7319,-0.3906,0.1709,-51.28,-47.317,22.866,0.8471,100766.66
1.0415,-0.3813,0.0439,-77.622,-52.805,22.5,1.11,100766.04
1.2236,-0.4355,-0.1602,-84.268,-1.22,-2.866,1.3087,100765.59
1.8335,-0.2085,0.0859,-49.268,31.89,-37.561,1.8473,100765.35
1.0498,-0.0361,-0.437,-69.024,36.402,-3.78,1.1377,100765.8
0.835,0.0986,0.1245,-16.098,30.976,-5.122,0.8499,100765.67
0.3726,0.084,-0.2681,-55.305,2.622,5.244,0.4666,100764.7
0.1431,0.1045,-0.2563,-34.512,-8.902,-1.829,0.3116,100763.72
0.3779,0.2031,-0.064,-7.622,-6.037,-12.378,0.4338,100765.19
1.0034,0.2427,-0.248,-6.585,-26.646,-15.61,1.0617,100764.94
1.7197,-0.0991,-0.7886,16.159,-31.098,-22.744,1.8945,100764.76
1.5591,0.2295,0.2783,165.549,19.573,4.024,1.6003,100765.35
1.6152,0.0771,0.0688,119.329,-39.024,-8.415,1.6185,100766.16
1.6772,-0.0972,-0.4702,72.683,-25.244,-20.427,1.7446,100765.91
0.7061,0.0317,-0.0244,115.183,25.488,8.841,0.7072,100765.83
0.4126,-0.0454,-0.0059,68.293,9.268,1.89,0.4151,100767.02
0.2964,-0.0708,0.1064,28.841,-0.488,2.866,0.3228,100766.91
0.1816,0.0186,-0.042,-28.72,-14.085,8.476,0.1874,100767.33
0.5952,-0.1201,-0.6055,-78.11,-36.463,5.793,0.8575,100767.04
1.2012,-0.1924,-0.1489,-22.5,-9.085,15.854,1.2256,100766.59
1.519,-0.4697,-0.0005,-30.0,7.378,16.646,1.59,100766.36
1.4233,-0.3955,-0.1963,-41.463,19.146,20.915,1.4903,100766.54
1.4224,-0.1494,0.2637,-19.634,23.598,1.159,1.4543,100766.93
1.4985,-0.2095,-0.3906,-84.634,7.195,-9.939,1.5627,100767.47
0.9106,-0.1377,-0.502,-40.122,22.805,15.122,1.0489,100766.29
0.2998,0.1055,0.0728,17.256,43.476,10.0,0.326,100765.51
0.3545,0.1045,-0.0596,-25.671,14.878,-12.683,0.3743,100765.55
0.3867,0.0967,-0.2549,-37.561,7.317,-10.122,0.4731,100766.18
0.4131,0.3369,-0.0728,-11.585,22.195,-10.976,0.538,100766.79
1.0117,0.2471,-0.5166,-20.976,7.195,-42.744,1.1625,100766.48
1.939,-0.0049,-0.4585,56.707,-7.622,-34.817,1.9924,100765.9
1.4321,0.2896,0.71,153.72,33.049,11.341,1.6245,100765.46
1.6567,0.0518,0.1079,37.378,-16.402,-25.183,1.6611,100766.0
1.8174,-0.1274,-0.6616,4.756,-14.146,-30.0,1.9383,100766.05
1.0044,-0.0508,-0.0234,88.232,40.793,11.22,1.006,100766.05
0.5181,-0.0898,0.0654,49.146,6.402,28.049,0.5299,100766.16
0.2734,-0.1265,-0.2407,-10.915,-28.293,31.524,0.3856,100766.98
0.2881,-0.1211,-0.1787,-24.085,-19.39,25.671,0.36,100766.87
0.9609,-0.2144,-0.0332,-38.659,-4.329,18.902,0.9851,100766.92
1.3247,-0.2954,-0.2231,-40.915,10.976,35.732,1.3755,100767.33
1.0742,-0.3076,0.2476,8.415,34.512,46.829,1.1445,100767.27
1.249,-0.062,0.6157,-12.256,23.293,8.598,1.3939,100766.73
1.7759,-0.0923,-0.0913,-95.366,-29.207,-26.159,1.7806,100767.43
1.4365,-0.0986,-0.6118,-91.585,-8.537,-13.049,1.5645,100767.71
0.6929,0.0762,-0.0225,-14.268,23.537,1.463,0.6974,100766.09
0.1416,0.1353,-0.3325,-37.317,-6.098,1.524,0.3859,100766.23
0.0552,0.0845,-0.4961,-11.463,5.793,-18.598,0.5062,100765.45
0.4722,0.0498,0.0801,37.805,18.293,-32.805,0.4815,100765.87
1.1094,0.0449,0.0332,17.622,-14.878,-26.707,1.1108,100765.8
1.8135,-0.0688,-0.4014,29.573,-35.305,-5.061,1.8586,100765.02
1.5708,0.1113,0.5498,127.744,19.878,35.488,1.668,100766.13
1.2656,0.0884,0.3779,55.61,-0.244,24.634,1.3238,100766.62
1.4507,-0.0933,-0.7168,-13.11,-31.524,-5.488,1.6208,100766.49
1.1143,0.0039,-0.0605,61.707,27.317,1.098,1.1159,100766.27
0.6226,-0.1118,-0.2393,16.159,-0.244,10.305,0.6763,100765.73
0.3809,-0.1914,-0.3657,7.073,-3.659,13.78,0.5616,100766.06
0.292,-0.0737,0.335,22.317,14.573,17.805,0.4504,100765.38
0.5972,-0.1831,-0.0146,-68.11,-33.841,20.854,0.6248,100765.93
1.1377,-0.2964,-0.5005,-89.451,-54.939,30.854,1.2778,100766.58
1.4355,-0.4023,-0.0605,-24.512,-17.866,38.049,1.4921,100766.44
1.1255,-0.2686,0.02,-24.817,8.415,30.671,1.1573,100767.06
1.5322,-0.1621,-0.0044,-44.756,6.768,-19.756,1.5408,100766.2
1.7119,-0.1934,-0.3706,-65.061,-7.134,-28.537,1.7622,100767.03
1.0615,-0.0342,-0.0039,-17.561,35.793,-5.305,1.0621,100767.04
0.4546,0.0229,-0.1167,-35.244,31.646,7.988,0.4699,100766.19
0.1284,-0.0239,-0.5303,-38.354,6.341,13.72,0.5461,100765.78
0.2163,0.0576,-0.3062,15.366,44.39,9.939,0.3793,100765.73
0.6714,0.0474,0.0029,34.268,64.451,6.402,0.6731,100765.69
1.0259,-0.0298,-0.0854,23.659,19.268,5.976,1.0299,100765.3
1.6401,-0.2061,0.1929,59.573,-12.073,-10.671,1.6642,100766.1
1.5664,0.0342,0.8276,73.049,-5.488,-16.463,1.7719,100765.84
1.6597,-0.1733,-0.3818,-29.085,-51.524,-34.451,1.7118,100765.52
1.1128,-0.0713,-0.375,36.646,0.305,-20.976,1.1764,100764.94
0.4868,0.1245,0.1211,72.805,14.512,-22.805,0.5169,100765.11
0.7275,-0.0605,-0.2822,-0.305,-47.927,-20.305,0.7827,100765.6
0.5068,-0.1802,-0.5259,-0.122,-18.902,13.293,0.7523,100764.98
0.5869,-0.1133,0.1841,30.305,4.329,21.098,0.6254,100765.35
0.9873,-0.2261,-0.0371,-35.305,-20.732,29.817,1.0135,100764.44
0.9795,-0.3213,0.1401,-27.256,6.707,14.024,1.0403,100763.48
1.1914,-0.3618,0.0757,-59.573,-16.098,-22.988,1.2474,100763.74
1.9126,-0.2158,-0.2495,-72.5,-19.878,-55.549,1.9408,100765.3
0.5425,0.1318,-0.0176,18.78,23.841,7.134,0.5585,100764.81
0.1733,0.1719,-0.3711,-7.927,13.232,7.622,0.4442,100765.12
0.0967,0.1475,-0.3462,16.524,9.207,-6.707,0.3885,100765.22
0.8823,0.0659,0.1597,48.171,-7.012,-20.793,0.8991,100765.45
1.4019,0.1274,0.0015,37.195,-30.122,3.659,1.4076,100765.06
1.4019,0.0869,0.1826,75.427,-5.732,14.207,1.4164,100765.18
1.3066,0.1206,0.4058,62.805,26.463,-9.085,1.3735,100765.5
1.5386,-0.1089,-0.5098,4.512,-6.89,-35.305,1.6245,100765.0
1.5625,-0.0244,-0.0405,77.927,11.159,-20.732,1.5632,100765.4
0.8965,-0.0264,0.3027,55.793,27.378,10.305,0.9466,100765.04
0.5269,-0.2021,-0.4287,-26.037,-25.732,26.463,0.7087,100765.03
0.4727,-0.1807,-0.1577,3.11,0.549,32.256,0.53,100765.88
0.5444,-0.1538,0.0732,-18.171,0.0,44.756,0.5705,100765.67
0.6538,-0.1421,-0.2417,-74.146,-49.573,62.195,0.7114,100765.76
1.3716,-0.2783,-0.1841,-61.463,-33.598,45.305,1.4116,100765.34
1.0933,-0.3789,-0.123,-27.988,14.024,56.646,1.1636,100765.65
0.9668,-0.1104,0.3315,1.585,51.707,11.768,1.028,100765.38
1.7598,-0.1099,0.189,-62.012,12.622,-47.805,1.7733,100765.39
1.1631,-0.0479,-0.3428,-99.207,13.293,-26.098,1.2135,100765.43
0.6265,-0.0073,-0.4028,-67.134,19.573,-16.951,0.7448,100766.18
0.4116,0.002,-0.3003,-35.244,8.537,-17.988,0.5095,100766.66
0.3389,0.0352,-0.2466,-19.024,-7.378,-14.756,0.4206,100766.75
0.6802,0.0977,-0.2324,-2.561,-6.585,-8.537,0.7254,100766.3
1.189,-0.0415,0.0586,111.22,49.329,4.695,1.1911,100765.73
1.1064,0.2778,1.1479,141.646,40.0,-28.354,1.6184,100766.55
1.9619,-0.0068,-0.5171,-14.512,-91.646,-72.561,2.0289,100766.16
1.3945,0.042,-0.4468,76.22,-2.561,-35.61,1.465,100766.6
0.8125,0.0522,0.665,110.793,62.378,-9.573,1.0513,100766.82
0.4097,-0.2378,-0.4922,-17.317,15.61,16.402,0.6831,100767.09
0.7822,-0.189,0.0874,-2.927,-1.768,24.756,0.8095,100767.3
0.832,-0.2085,-0.2725,-57.317,-35.061,55.366,0.9,100767.45
1.1626,-0.1479,-0.0737,-31.22,-16.829,41.402,1.1743,100767.7
1.2632,-0.2383,0.0928,-25.122,-5.549,33.902,1.2888,100767.05
1.1816,-0.0781,0.1904,-24.878,25.305,-2.073,1.1994,100767.04
1.7466,-0.1309,-0.1343,-63.11,-6.22,-46.951,1.7566,100766.16
1.4668,-0.249,-0.6812,-51.524,-5.61,-20.915,1.6363,100766.25
0.8145,-0.1392,0.085,26.829,35.61,12.683,0.8306,100765.93
0.377,-0.0303,0.2134,-19.573,19.817,20.122,0.4342,100765.68
0.251,-0.103,-0.2231,-60.732,-17.927,13.841,0.3513,100765.14
0.3271,0.0513,0.3794,-18.354,-3.11,7.622,0.5036,100765.46
0.7749,0.209,0.0381,-58.72,-38.232,-4.329,0.8035,100766.07
1.5571,-0.0884,-0.8652,-44.512,-68.598,-16.707,1.7836,100766.02
1.7622,0.1128,0.0122,104.024,17.134,7.012,1.7659,100766.73
1.3516,0.0625,0.105,111.037,-1.463,15.183,1.3571,100766.12
1.541,-0.042,-0.0425,90.732,-29.573,-9.024,1.5422,100766.34
0.7881,0.0522,0.4692,75.122,36.463,8.476,0.9187,100766.09
0.3755,-0.0674,-0.3496,-34.756,-8.659,9.085,0.5175,100765.45
0.5796,-0.186,-0.2036,0.183,9.207,6.585,0.6419,100765.85
1.0723,-0.2891,-0.0234,-36.524,-11.707,16.707,1.1108,100767.21
1.1538,-0.1904,-0.0322,-50.915,-4.085,33.171,1.1699,100765.64
1.3428,-0.3232,-0.1294,-49.512,-17.073,27.866,1.3872,100765.44
1.2456,-0.2808,-0.0347,-22.988,26.159,15.061,1.2773,100765.93
1.3301,-0.0977,0.5161,-13.841,53.902,-22.073,1.43,100765.79
1.2422,-0.1611,-0.3647,-99.146,4.939,-39.573,1.3046,100765.84
0.999,-0.1553,-0.4722,-48.11,20.915,-28.78,1.1158,100765.48
0.4434,0.0068,0.022,10.976,39.512,-1.768,0.444,100765.34
0.2251,0.0728,-0.0986,-8.78,-25.244,0.549,0.2563,100765.86
0.4443,0.0693,-0.1421,-6.22,-10.549,-11.707,0.4716,100765.88
0.6934,0.1421,-0.0566,15.732,-0.488,-10.488,0.71,100765.73
1.5273,0.0708,-0.2129,18.232,-35.915,-22.988,1.5437,100765.05
1.4712,0.0049,-0.2505,56.341,-19.207,-8.171,1.4924,100765.27
1.4722,0.1172,0.1011,88.841,-13.537,-20.671,1.4803,100765.3
1.7329,-0.0879,-0.5425,57.317,-48.598,-32.256,1.818,100765.33
0.9341,0.0112,-0.1812,109.085,45.61,-4.573,0.9516,100764.73
0.5693,-0.0117,0.2739,88.171,44.573,7.256,0.6319,100764.88
0.6748,-0.21,-0.2241,8.659,-4.39,16.463,0.7414,100764.91
0.4585,-0.1733,-0.1055,-0.488,6.341,34.268,0.5014,100765.16
0.8525,-0.1812,-0.0757,-31.28,-29.573,31.768,0.8749,100765.1
1.2842,-0.2231,-0.3076,-51.707,-44.146,38.293,1.3392,100764.58
1.0977,-0.3774,-0.2373,-25.793,-8.902,44.634,1.1847,100764.43
0.9829,-0.1782,0.2749,2.988,12.317,28.659,1.0361,100765.65
1.0493,-0.1431,0.3174,-34.573,25.366,-24.207,1.1056,100765.23
1.3862,-0.2627,-0.54,-82.866,-15.854,-57.439,1.5107,100765.52
1.1421,-0.1045,-0.1465,-12.5,22.256,-40.122,1.1562,100765.13
0.7471,0.0049,0.0044,-13.415,36.646,-13.659,0.7471,100765.2
0.4326,-0.0649,-0.396,-39.085,0.0,3.659,0.5901,100765.73
0.2783,0.0498,-0.1045,-4.512,12.988,6.28,0.3014,100765.17
0.748,0.123,0.2417,-6.341,6.585,-9.695,0.7957,100765.72
1.5283,-0.0415,-0.3608,-46.646,-55.183,-15.976,1.5709,100764.91
1.4189,0.0112,-0.4463,23.293,-14.939,6.768,1.4875,100765.75
1.2915,0.1597,0.1338,100.793,10.793,-0.915,1.3082,100765.53
1.6226,-0.0229,-0.1763,70.915,-4.024,-26.341,1.6323,100766.09
1.145,-0.0615,-0.1533,85.732,37.805,-0.549,1.1569,100765.91
0.6045,-0.0688,0.2607,85.366,43.293,18.72,0.6619,100766.13
0.5967,-0.2256,-0.0557,7.622,-4.512,18.841,0.6403,100765.59
0.7349,-0.25,-0.3428,-29.756,-13.476,29.329,0.8485,100766.01
0.8218,-0.2441,-0.3931,-35.305,-24.939,43.537,0.9431,100766.09
0.8809,-0.1484,-0.0591,-17.195,-22.561,49.146,0.8952,100765.78
0.9199,-0.2534,-0.0332,-40.793,-44.634,34.512,0.9548,100766.16
1.1279,-0.3369,-0.3887,-58.354,-28.354,5.671,1.2397,100765.61
1.3115,-0.2065,0.4761,-0.793,56.951,-38.354,1.4105,100765.55
1.6318,-0.1812,0.0352,-88.232,12.073,-61.159,1.6422,100765.13
1.2026,-0.2104,-0.8618,-111.037,6.707,-30.61,1.4944,100764.35
0.7114,-0.0454,-0.0571,4.329,42.317,-7.805,0.7152,100764.47
0.3525,0.0488,0.165,-13.476,0.366,7.256,0.3923,100764.33
0.1357,0.0381,-0.2354,-54.756,-33.902,2.927,0.2743,100764.44
0.8022,0.0884,0.0625,-29.878,-33.049,-22.805,0.8095,100765.15
0.8525,0.0874,-0.6216,-53.476,-85.793,-9.207,1.0587,100765.45
1.1567,0.0815,-0.9126,21.098,-66.463,-28.11,1.4756,100765.41
1.7095,0.2051,0.355,147.561,17.378,-46.341,1.7579,100765.63
1.6177,0.0186,0.0054,58.11,-0.732,-31.28,1.6178,100765.3
1.2988,-0.0732,-0.3311,24.634,16.89,-13.841,1.3424,100765.41
0.7788,-0.105,-0.3525,44.39,28.72,9.024,0.8613,100764.89
0.4761,-0.1123,-0.3232,59.695,37.378,16.585,0.5863,100764.51
0.4722,-0.0049,0.2803,58.415,32.012,20.305,0.5491,100765.45
0.8042,-0.1548,-0.272,-50.366,-16.341,25.976,0.8629,100764.92
1.4077,-0.1738,-0.4438,-52.195,-21.829,43.476,1.4862,100765.38
1.02,-0.1953,-0.3442,-3.171,12.012,75.61,1.0941,100765.24
0.4932,-0.3184,-0.3447,9.634,43.598,56.22,0.6807,100765.86
1.165,-0.1274,0.7002,37.317,71.707,-21.341,1.3652,100767.07
1.8887,-0.1343,0.1299,-101.646,-0.61,-54.329,1.8979,100767.35
1.1187,-0.1743,-0.7612,-134.085,7.622,-22.378,1.3643,100766.73
0.856,-0.1162,-0.1636,-18.415,19.573,-16.89,0.8792,100765.86
0.2295,-0.0923,-0.0425,-6.341,11.89,-0.61,0.251,100765.1
0.3047,-0.0068,0.2852,-8.049,-33.476,-16.402,0.4174,100765.98
0.748,-0.0146,-0.1851,-51.829,-29.695,-7.256,0.7707,100766.41
0.5723,0.1372,-0.5684,-10.61,-13.902,12.622,0.8181,100766.24
2.0527,-0.0972,-0.6016,39.146,-13.72,-27.622,2.1413,100766.5
1.5249,0.0332,0.0059,110.671,17.622,24.024,1.5253,100766.55
1.1177,0.0625,0.0737,80.0,-13.293,5.976,1.1218,100766.35
1.5181,-0.0757,0.2305,43.476,-3.11,-24.451,1.5373,100765.09
0.769,-0.0176,-0.0991,-10.793,11.037,1.89,0.7756,100765.39
0.5918,-0.0811,-0.6255,-40.366,-18.78,5.366,0.8649,100764.77
0.4858,-0.063,-0.4443,13.72,-1.463,17.012,0.6614,100765.73
0.6182,-0.0815,-0.083,28.049,-8.354,27.012,0.629,100765.64
1.1426,-0.3013,-0.103,-19.329,-1.098,36.585,1.1861,100765.93
0.9409,-0.1855,0.1362,-23.415,20.915,72.073,0.9687,100765.15
1.02,-0.2554,-0.1279,-54.024,-1.463,50.427,1.0593,100765.43
1.1455,-0.2241,-0.2031,-49.268,27.683,5.427,1.1848,100765.39
1.6685,-0.1006,0.3281,-39.146,4.207,-48.415,1.7034,100765.85
1.4878,-0.1567,-0.6099,-105.854,-30.305,-44.329,1.6156,100764.98
0.9038,-0.2109,-0.5068,-13.049,17.378,-18.476,1.0575,100764.93
0.6108,-0.041,0.3281,36.22,25.183,-6.646,0.6946,100765.88
0.3086,-0.0967,-0.4951,-34.939,-13.171,-1.402,0.5914,100765.38
0.7451,0.1533,0.1255,59.39,20.793,4.085,0.771,100765.47
0.7568,0.0684,-0.6548,30.427,-24.756,-3.963,1.0031,100765.18
1.0215,0.0122,0.0225,111.28,9.329,-16.707,1.0218,100764.95
1.2798,-0.0054,0.0957,97.439,24.329,-35.854,1.2834,100766.02
1.9644,-0.1484,0.2617,84.207,24.695,-64.512,1.9873,100765.71
1.9907,-0.189,0.8115,42.195,18.72,-32.683,2.1581,100765.84
0.9268,-0.2056,-0.3159,-75.183,-16.463,31.402,1.0005,100766.43
0.167,-0.0903,-0.6577,-43.049,-21.28,50.122,0.6846,100766.64
0.1362,-0.0459,-0.3857,2.256,-18.476,28.598,0.4117,100765.94
0.645,-0.1646,-0.3374,-13.293,-12.805,16.524,0.7463,100765.16
0.9463,-0.1997,0.0352,-5.366,5.427,34.146,0.9678,100765.67
1.2793,-0.2671,0.3477,-34.451,15.366,22.378,1.3523,100765.45
0.917,-0.314,-0.2422,-87.256,10.549,14.146,0.9991,100766.27
1.2925,0.0137,0.1611,-61.341,10.488,-33.902,1.3026,100766.62
1.4614,0.0386,-0.5273,-104.451,-24.573,-53.476,1.5541,100766.33
1.0425,-0.0586,-0.8755,-39.207,10.61,-35.0,1.3626,100765.95
0.8442,-0.0342,0.1167,64.817,65.366,-18.232,0.853,100766.4
0.7173,-0.0933,0.2559,28.11,34.512,-4.756,0.7672,100766.36
0.9087,-0.1851,-0.4312,-16.951,-14.634,21.341,1.0227,100765.97
0.812,0.0806,0.1147,26.89,13.11,52.805,0.824,100766.04
0.8188,0.0137,-0.4512,7.073,-28.293,44.817,0.935,100765.36
1.4648,-0.0464,0.082,72.988,-24.207,19.756,1.4679,100765.09
1.1157,0.0039,-0.0718,65.061,-28.11,15.976,1.118,100766.23
1.5825,-0.0391,-0.2866,72.5,-53.293,-27.866,1.6087,100765.73
1.7505,-0.0327,-0.0635,86.646,-16.22,-20.122,1.7519,100765.95
0.5801,-0.0879,-0.1899,69.329,18.841,27.744,0.6167,100766.16
0.0024,-0.0952,0.0522,62.317,4.39,29.939,0.1086,100765.8
0.2314,-0.1494,0.2739,19.817,-11.463,7.012,0.3885,100765.31
0.6387,-0.2588,-0.0117,-49.756,-5.671,2.866,0.6892,100764.7
0.9458,-0.2437,-0.2783,-73.354,-4.512,18.415,1.0156,100764.84
1.1274,-0.4697,-0.2979,-43.659,23.476,10.488,1.2572,100764.57
1.209,-0.4736,0.2295,2.317,56.098,-6.89,1.3186,100764.87
1.6055,-0.2261,0.5352,-30.488,47.988,-34.39,1.7073,100765.45
1.1777,-0.0317,-0.4907,-105.061,10.61,-40.671,1.2763,100765.4
1.2808,-0.0376,-0.6709,-45.854,26.829,-47.683,1.4463,100766.59
1.1011,-0.0122,0.0957,21.89,51.341,-14.695,1.1053,100766.74
0.4902,0.019,0.2715,-9.512,30.122,11.402,0.5607,100767.35
0.5586,0.042,-0.0728,-52.195,-15.793,4.939,0.5649,100767.43
0.8857,0.1489,-0.0039,-44.024,-13.476,15.549,0.8982,100766.77
0.7002,0.144,-0.667,-40.793,-40.549,19.878,0.9777,100765.65
1.502,0.0176,-0.228,62.805,-31.098,-22.744,1.5193,100765.8
1.7246,-0.0337,0.4297,113.659,8.049,-29.268,1.7777,100765.16
1.6431,-0.2056,0.0059,64.878,-26.524,-24.085,1.6559,100764.8
0.9888,-0.1372,-0.1533,52.866,-7.988,5.427,1.0099,100765.28
0.4829,-0.1362,-0.3467,46.524,-3.171,21.22,0.6099,100765.5
0.3164,-0.1602,-0.2568,62.256,-0.122,25.122,0.4379,100765.93
0.2603,-0.127,0.2739,52.927,-0.854,27.744,0.3986,100766.75
0.9385,-0.2407,0.2158,-35.61,-28.598,20.732,0.9926,100766.74
1.3394,-0.3652,-0.2876,-77.683,-39.146,38.537,1.4177,100766.62
1.2666,-0.4946,0.0869,-31.037,13.354,35.915,1.3625,100766.77
1.0239,-0.2783,0.2051,-46.951,26.707,7.866,1.0807,100766.75
1.7036,-0.2173,-0.2036,-93.963,-15.732,-44.512,1.7294,100765.62
1.3667,-0.1821,-0.6177,-83.232,10.61,-28.476,1.5108,100765.04
0.7119,0.0308,0.208,-14.451,28.11,-5.976,0.7423,100764.96
0.4194,0.0825,0.0444,-56.463,-4.024,-0.183,0.4298,100765.27
0.1831,0.103,-0.3569,-61.768,-19.39,1.707,0.4142,100765.23
0.3223,0.1631,0.0391,-17.317,13.293,-10.671,0.3633,100765.34
0.8926,0.1274,-0.0239,-30.61,4.512,-19.878,0.9019,100765.68
1.1846,-0.0874,-0.9355,-34.024,-27.256,-25.183,1.512,100765.45
1.5444,0.0352,-0.083,115.793,43.78,-31.341,1.5471,100764.98
1.3428,0.0918,0.5869,144.207,16.098,-25.183,1.4683,100765.87
1.6748,-0.1343,-0.646,33.049,-44.756,-47.805,1.8001,100765.93
1.5688,-0.0879,-0.3584,104.817,18.11,-16.037,1.6117,100765.86
0.8154,-0.0503,0.2886,129.085,37.439,34.451,0.8664,100766.44
0.3091,-0.0928,0.1348,44.756,-2.805,41.524,0.3497,100766.12
0.2627,-0.0542,0.0332,-15.732,-38.841,28.902,0.2703,100766.02
0.8184,-0.1914,-0.354,-61.585,-56.585,23.293,0.912,100764.94
1.1685,-0.2207,-0.4448,-34.573,-17.317,36.22,1.2696,100764.75
1.3242,-0.4165,-0.0171,9.146,16.22,29.146,1.3883,100764.84
1.2793,-0.3984,0.0156,0.915,31.22,7.195,1.34,100765.52
1.6265,-0.3022,0.2651,-0.244,35.854,-22.805,1.6754,100765.19
1.4771,-0.2402,-0.1865,-46.646,-1.341,-11.341,1.508,100764.54
0.7944,-0.0581,-0.2437,-35.0,1.037,15.61,0.833,100764.44
0.1504,0.0864,-0.2188,-21.098,9.024,23.354,0.2792,100764.1
-0.0176,0.1543,-0.0425,-16.89,-8.354,7.073,0.161,100764.36
0.3174,0.145,-0.0444,-25.366,-20.427,-6.951,0.3518,100764.91
0.7554,0.2646,0.0264,-22.866,-2.988,-6.098,0.8008,100764.59
1.4316,-0.0322,-0.7803,-34.634,-10.305,-25.976,1.6308,100764.69
2.1372,0.0361,0.064,117.805,18.049,-29.634,2.1385,100764.56
1.8311,0.0996,0.4009,125.671,-6.89,-4.451,1.8771,100764.33
1.0864,0.0703,-0.8564,44.329,-32.439,-2.561,1.3852,100764.52
0.9556,0.2739,0.0298,155.793,15.061,-17.683,0.9945,100764.3
0.7393,-0.0112,-0.4297,103.902,-2.622,-10.732,0.8551,100764.11
0.4355,-0.0498,-0.3677,139.512,13.902,-1.585,0.5722,100763.99
0.5718,-0.0269,0.6865,156.037,13.232,7.134,0.8938,100764.4
0.6152,-0.2905,-0.2168,1.341,-50.122,23.963,0.7141,100763.83
0.938,-0.2021,-0.4434,13.293,-23.476,38.232,1.057,100764.05
1.1943,-0.3677,-0.1855,55.305,9.817,23.293,1.2633,100764.01
1.5786,-0.0869,0.7515,90.061,51.707,-3.232,1.7505,100764.53
1.4658,-0.0156,0.7056,-19.817,-5.0,-13.11,1.6269,100765.42
1.1128,-0.0439,-0.3418,-123.11,-45.305,-23.659,1.1649,100765.35
0.9536,-0.0835,-0.6899,-76.341,-36.402,-16.829,1.18,100764.53
0.3525,-0.0449,-0.5986,6.28,53.963,7.256,0.6962,100764.64
0.0293,0.1372,-0.0898,71.951,71.951,10.0,0.1666,100763.77
0.6719,0.1377,0.2939,67.5,23.171,-7.683,0.7462,100763.73
1.5073,0.146,-0.0317,17.805,-3.171,-3.902,1.5147,100763.55
2.0273,-0.1357,-1.1587,39.024,20.976,3.659,2.339,100763.31
1.2729,0.5645,1.1855,298.049,78.659,46.768,1.8288,100763.62
1.4429,0.1245,0.4995,94.39,-74.451,10.488,1.532,100763.26
1.2344,-0.1797,-1.3643,-31.646,-119.268,0.732,1.8486,100763.21
0.5151,0.0903,0.0767,180.488,0.183,9.939,0.5286,100763.05
0.1313,0.0107,0.3745,116.646,-15.244,-2.012,0.397,100763.66
0.3833,-0.0845,0.2461,23.72,-44.756,-24.573,0.4633,100763.62
0.5244,-0.0791,0.1709,-34.756,-57.256,-16.707,0.5572,100764.59
0.9526,-0.252,-0.665,-94.39,-83.72,-3.841,1.1888,100764.31
1.7598,-0.3398,-0.9199,-10.244,-38.171,12.012,2.0146,100763.88
1.3857,-0.2397,0.2197,120.244,40.854,52.561,1.4234,100764.29
0.9922,-0.0811,0.5923,65.366,25.488,34.756,1.1584,100763.71
1.3862,-0.1045,-0.1982,-48.171,15.854,-49.573,1.4042,100764.54
1.0488,-0.0176,-0.1035,-42.866,36.646,-51.707,1.0541,100764.8
0.4814,-0.0342,-0.582,-59.878,11.89,-38.72,0.7561,100764.74
0.4214,-0.2007,-0.8784,-3.902,2.744,-45.122,0.9947,100765.17
0.501,-0.103,-0.0483,101.646,39.024,-28.11,0.5137,100764.99
0.7417,-0.1011,0.2822,91.646,25.732,-8.598,0.8,100765.38
1.1636,0.063,-0.1465,39.817,-16.402,10.732,1.1744,100764.78
1.48,-0.0601,-0.2539,66.768,4.146,8.171,1.5028,100764.71
1.564,0.1016,0.7002,121.951,27.5,24.329,1.7166,100763.8
1.3442,-0.0498,-0.3545,5.61,-64.939,6.585,1.3911,100763.23
1.6157,-0.0835,-0.9805,41.585,-57.805,-28.232,1.8918,100763.83
1.0635,0.0732,0.1431,146.341,21.89,-4.634,1.0756,100764.72
0.627,-0.0454,0.0625,73.902,-9.573,12.439,0.6317,100763.94
0.3032,-0.106,-0.1396,27.012,-6.159,19.634,0.3502,100763.84
0.146,-0.083,0.1489,19.207,1.28,20.793,0.2245,100764.48
0.4409,-0.1704,0.1157,-25.793,-20.915,18.354,0.4867,100764.73
0.8989,-0.2607,-0.1074,-63.841,-14.268,24.573,0.9421,100765.54
1.5034,-0.5713,-0.1514,-58.659,-11.28,19.695,1.6154,100765.27
1.5171,-0.4482,-0.2095,-36.22,13.598,28.354,1.5957,100765.91
1.4395,-0.2339,-0.0498,-14.146,47.439,2.683,1.4592,100765.2
1.6255,-0.2568,-0.4604,-33.415,24.024,-27.256,1.7089,100764.78
1.2939,-0.1714,-0.1362,9.024,31.402,-18.598,1.3123,100763.87
0.6826,-0.0894,0.0327,-2.683,28.476,-2.012,0.6892,100763.65
0.3203,-0.061,-0.2993,-32.683,-4.39,4.207,0.4426,100763.73
0.2651,-0.0015,-0.145,-7.5,-10.305,10.122,0.3022,100764.08
0.5376,0.0723,0.4175,3.415,-16.524,6.159,0.6845,100764.8
0.8921,0.0654,-0.064,-63.476,-33.841,0.122,0.8968,100764.13
1.0435,-0.2173,-0.9834,-58.78,-28.963,-25.549,1.4502,100763.14
1.6782,0.0088,0.1382,131.707,4.329,-32.378,1.6839,100763.12
1.6274,-0.064,0.6143,132.195,4.634,-24.207,1.7407,100764.1
1.5767,-0.2554,-0.4258,21.22,-37.134,-24.451,1.653,100764.1
0.8398,-0.144,-0.3721,69.207,5.854,9.39,0.9298,100764.09
0.2866,-0.0688,-0.2925,86.707,2.561,20.61,0.4153,100763.97
0.4722,-0.1069,-0.1646,74.817,-8.902,9.207,0.5113,100764.03
0.4951,-0.2222,0.0391,38.171,24.085,5.366,0.5441,100764.66
0.6284,-0.2417,0.104,-7.378,2.805,11.22,0.6813,100764.75
0.9946,-0.3691,-0.1108,-47.134,-4.878,4.329,1.0667,100764.95
1.207,-0.54,-0.0239,-29.817,13.902,-7.744,1.3226,100765.24
1.4424,-0.4248,0.1367,-17.195,16.646,-27.988,1.5098,100765.44
2.0225,-0.3062,0.3823,-31.951,19.207,-52.5,2.0809,100766.09
1.4561,-0.2378,-0.2842,-81.707,30.793,-21.707,1.5025,100766.69
0.7764,-0.1011,-0.2222,-42.927,27.744,4.329,0.8138,100766.03
0.4082,0.0469,-0.0225,-28.11,8.171,16.098,0.4115,100765.79
0.085,0.0659,-0.1807,-43.354,-11.341,20.244,0.2102,100765.98
0.6855,-0.0317,-0.2471,-41.89,-5.305,5.854,0.7294,100766.02
1.0908,0.1182,-0.1001,-29.878,34.573,23.476,1.1018,100765.79
0.9355,-0.0654,-0.6973,-23.354,-19.39,14.085,1.1686,100765.13
1.5034,-0.022,-0.1919,97.988,-7.683,-12.256,1.5158,100764.77
1.4634,-0.0283,0.8384,167.378,19.634,-21.463,1.6868,100764.75
1.9175,-0.2461,0.6768,80.488,-31.707,-38.171,2.0482,100764.59
1.207,-0.228,-0.3359,8.78,-34.512,11.646,1.2735,100765.58
0.186,-0.0859,-0.5342,51.341,-7.683,38.415,0.5721,100763.24
0.1328,-0.0425,-0.1733,86.341,-23.11,17.866,0.2225,100763.96
0.3262,-0.0981,0.1914,53.841,-23.049,4.451,0.3907,100764.23
0.9868,-0.3223,-0.0811,-28.902,-6.951,5.488,1.0413,100765.08
1.1123,-0.2998,0.0093,-35.915,25.854,43.232,1.152,100765.45
0.6587,-0.4849,0.0376,-18.963,2.805,40.061,0.8188,100764.62
1.5107,-0.4878,0.5176,-20.671,9.39,-18.78,1.6698,100765.49
1.6875,-0.3628,0.5029,-77.5,23.598,-46.098,1.7978,100767.23
1.6499,-0.2969,-0.4697,-133.72,-19.451,-55.854,1.741,100766.83
1.2788,-0.2417,-0.4487,-59.939,7.317,-31.89,1.3766,100766.41
0.5933,-0.1074,-0.0869,-9.512,29.512,-2.622,0.6091,100766.22
0.124,-0.0244,-0.207,-24.817,9.512,0.976,0.2426,100765.84
0.2739,0.0503,-0.1279,-23.537,-5.488,-6.037,0.3065,100765.43
0.7476,0.0127,0.2036,-24.634,-17.866,-0.854,0.7749,100764.98
1.2856,-0.1128,-0.5337,-57.012,-55.244,13.78,1.3966,100765.27
1.665,-0.29,-0.2837,47.256,-9.756,22.622,1.7138,100764.87
1.1768,0.1401,0.8604,112.866,22.866,39.146,1.4644,100764.55
1.1187,-0.0308,-0.3486,-1.829,-71.524,-13.963,1.1721,100764.94
1.8345,-0.2188,-0.6934,26.098,-54.878,-52.195,1.9733,100765.45
0.8755,-0.019,-0.0913,91.098,17.073,-2.866,0.8804,100765.63
0.2036,-0.0698,-0.2617,46.524,-2.683,10.0,0.3389,100765.51
0.1626,-0.1318,-0.1157,37.134,-4.146,-2.744,0.2392,100765.3
0.3628,-0.2007,-0.0713,3.171,16.28,-9.634,0.4207,100764.64
0.874,-0.3291,-0.0981,-25.915,-4.756,2.683,0.9391,100765.25
1.4829,-0.4487,-0.124,-35.366,-63.537,24.756,1.5543,100765.23
1.4028,-0.6152,-0.2568,-20.671,-69.878,45.244,1.5532,100765.55
1.4375,-0.395,0.1772,2.134,22.073,15.671,1.5013,100766.43
1.7607,-0.2271,0.1582,-54.939,46.585,-15.915,1.7824,100766.36
1.1343,-0.1665,-0.7236,-106.098,35.732,-2.683,1.3557,100766.17
0.6553,-0.0703,-0.5645,-39.878,33.902,5.793,0.8677,100765.18
0.3291,0.0508,-0.0288,1.524,48.293,10.732,0.3342,100765.3
0.0664,0.1055,-0.0278,-20.793,40.61,10.732,0.1277,100765.49
0.3374,0.061,-0.041,-27.866,5.0,-2.927,0.3453,100765.42
1.1865,-0.0063,0.1714,-34.695,-20.915,-16.524,1.1989,100766.34
1.8018,-0.3672,-0.8921,-50.122,-57.683,-4.39,2.0438,100766.01
1.356,-0.1406,-0.2383,94.695,8.598,33.354,1.3839,100765.91
1.2393,-0.1284,-0.0103,109.695,-24.329,5.427,1.2459,100765.33
1.6484,-0.2197,-0.1196,75.183,-54.817,-21.28,1.6673,100764.08
0.7515,-0.0693,-0.0732,62.012,18.415,7.622,0.7582,100764.59
0.5059,-0.1147,-0.1543,34.817,9.085,0.671,0.5412,100763.88
0.5864,-0.2236,-0.1934,22.561,5.854,2.195,0.6567,100764.31
0.3594,-0.1699,0.1899,27.988,33.841,22.134,0.4406,100764.64
0.4976,-0.2217,0.166,-26.768,3.415,25.244,0.5694,100765.5
1.2295,-0.272,-0.0605,-75.61,-11.829,19.634,1.2607,100764.66
1.4116,-0.5483,-0.4204,-80.488,-8.415,25.366,1.5717,100764.9
1.0967,-0.4517,-0.4102,-47.439,18.659,20.244,1.255,100764.2
1.2671,-0.2739,0.0469,-22.012,46.89,-28.841,1.2972,100764.54
1.3022,-0.3164,-0.3682,-48.659,22.073,-53.963,1.3898,100765.19
0.958,-0.1382,-0.085,-17.317,2.561,-47.866,0.9716,100764.91
0.7114,-0.1118,-0.1035,-23.171,-23.171,-35.183,0.7276,100765.44
0.519,-0.1211,-0.2188,-13.11,-18.841,-15.976,0.5761,100764.26
0.4194,-0.0132,0.1152,12.317,14.207,-0.122,0.4352,100764.59
0.7427,0.0708,-0.0063,-5.061,10.61,6.037,0.7461,100764.1
1.4653,-0.0923,-0.5879,-0.427,7.195,0.427,1.5816,100764.23
1.4795,-0.1025,-0.5166,91.829,14.207,15.0,1.5704,100764.55
1.3213,0.063,0.1929,160.183,10.549,7.683,1.3368,100764.58
1.0981,-0.1133,-0.0308,77.012,-9.756,-14.512,1.1044,100764.45
0.6299,-0.1655,-0.3115,45.976,-12.805,-6.707,0.7219,100763.98
0.46,-0.2017,-0.252,46.098,-15.793,0.61,0.5619,100764.04
0.4092,-0.2036,0.019,29.878,-5.732,12.134,0.4574,100764.3
0.5708,-0.3223,-0.0728,-20.427,-7.744,23.354,0.6595,100764.73
0.9019,-0.2583,0.0522,-50.854,-13.232,36.159,0.9396,100765.31
1.3281,-0.5015,-0.1367,-79.268,-24.451,26.646,1.4262,100764.87
1.1562,-0.4927,-0.23,-57.256,11.585,15.244,1.2777,100764.82
1.7056,-0.2681,0.4653,-26.585,57.622,-32.073,1.7881,100765.38
1.6011,-0.2451,-0.2202,-92.805,33.049,-24.024,1.6346,100764.8
0.8569,-0.167,-0.4761,-52.866,58.72,5.488,0.9944,100764.88
0.3804,0.0264,0.2256,14.756,46.22,8.902,0.443,100764.57
0.2769,0.0542,0.1138,-37.073,8.11,-5.549,0.3042,100764.83
0.3501,-0.0059,-0.311,-58.841,0.732,-11.707,0.4683,100765.66
0.856,0.0542,0.0864,-16.524,-6.646,-10.549,0.862,100765.77
1.3887,-0.0532,-0.7563,-40.793,-45.793,-3.354,1.5822,100765.6
1.3379,-0.0039,-0.604,82.744,-31.22,5.122,1.4679,100766.23
1.1885,0.1343,0.9131,159.329,2.988,-6.341,1.5047,100766.33
1.5298,-0.1318,-0.3018,9.756,-55.732,-46.037,1.5648,100765.77
1.5269,-0.1655,-0.3647,38.598,-16.585,-42.805,1.5785,100766.08
1.0591,-0.1196,0.3286,59.268,40.549,-16.646,1.1153,100765.12
0.5557,-0.1567,-0.2358,-10.549,18.841,9.085,0.6237,100765.98
0.3638,-0.0825,-0.1992,-12.927,-0.183,16.22,0.4229,100766.62
0.5718,-0.1421,-0.3452,-40.183,-27.744,24.207,0.6829,100766.01
0.8662,-0.1069,-0.478,-31.22,-7.927,36.768,0.9951,100765.4
1.4126,-0.3809,-0.0576,20.366,22.866,24.756,1.4642,100765.95
1.2915,-0.4106,0.1758,30.793,57.439,21.159,1.3666,100765.86
1.6016,-0.1582,0.9185,19.268,53.354,-18.78,1.853,100766.16
1.7607,-0.2026,0.0244,-100.244,-9.329,-27.134,1.7725,100765.04
0.9878,-0.0874,-0.2007,-84.085,0.976,2.073,1.0118,100764.83
0.1533,0.0781,-0.1479,-56.646,-4.634,12.317,0.2269,100764.9
0.0659,0.0825,-0.1792,-52.256,-26.829,-5.732,0.208,100764.59
0.2974,-0.0103,-0.3257,-42.744,-16.341,-16.037,0.4411,100765.1
1.1001,-0.0942,0.0996,-1.585,20.183,-12.5,1.1086,100764.49
1.1504,-0.0747,-0.2695,-9.512,-4.939,21.707,1.1839,100764.79
1.3706,-0.2534,-0.6328,54.939,8.293,8.354,1.5308,100765.13
1.4648,0.0317,0.9512,166.524,18.171,-3.171,1.7469,100764.89
1.5508,-0.1777,-0.0044,12.439,-75.976,-24.756,1.5609,100763.97
1.3286,-0.1333,-0.7363,5.488,-51.707,-19.817,1.5248,100764.98
0.5234,0.0903,0.2109,96.098,1.402,3.232,0.5715,100764.89
0.3364,-0.0728,-0.2759,21.28,-35.244,-1.037,0.4411,100764.57
0.354,-0.1616,-0.3789,26.28,-4.573,3.293,0.5431,100764.6
0.5806,-0.1968,0.5117,39.329,18.415,7.988,0.7985,100765.46
1.0479,-0.3394,0.1602,-80.549,-25.793,19.39,1.113,100765.62
1.3672,-0.4229,-0.5303,-115.0,-32.378,32.683,1.5262,100764.5
1.4722,-0.5576,-0.7202,-61.28,-20.915,41.098,1.7312,100764.05
1.6758,-0.3037,0.6421,42.927,51.707,-29.817,1.8201,100764.69
1.3228,-0.248,-0.0024,-46.524,-2.439,-27.622,1.3458,100763.91
0.8301,-0.1509,-0.2285,-52.622,-9.695,-15.0,0.8741,100764.83
0.4121,-0.0298,-0.1865,-41.22,3.902,-2.378,0.4533,100764.55
0.1172,-0.0024,-0.21,-45.671,-4.146,2.5,0.2405,100764.34
0.584,-0.0376,-0.0864,-39.451,-8.476,-5.549,0.5915,100764.16
0.8896,0.0112,0.0562,-37.988,31.646,-1.22,0.8915,100764.16
1.1826,-0.1914,-0.6519,-42.073,11.829,0.671,1.3639,100764.16
1.1138,-0.1475,-0.1821,77.5,34.634,7.866,1.1382,100764.65
1.3472,0.0244,0.8101,109.939,11.28,-25.793,1.5721,100765.02
1.9272,-0.2378,-0.6304,-46.829,-97.561,-49.512,2.0416,100764.79
1.1753,-0.1431,-0.9531,25.671,-20.854,-14.329,1.5199,100765.11
0.5557,-0.0459,0.0156,131.89,24.146,4.146,0.5578,100765.5
0.2495,-0.0908,0.1821,89.207,-11.28,4.878,0.322,100764.7
0.2598,-0.1372,0.103,4.146,-21.159,-6.159,0.3113,100764.33
0.7925,-0.3965,-0.3867,-58.598,-36.22,-7.927,0.9668,100764.05
1.1841,-0.2422,0.0439,-23.354,-4.817,22.256,1.2094,100765.55
1.269,-0.3706,-0.2319,-54.695,1.402,32.317,1.3422,100765.23
1.4097,-0.4707,-0.5229,-36.402,16.585,27.439,1.5755,100766.31
1.2305,-0.1562,0.7012,46.037,90.244,9.024,1.4248,100767.01
1.4805,-0.124,0.3164,-82.988,21.829,-36.89,1.519,100766.43
1.3853,-0.2725,-0.9014,-143.415,-38.78,-27.256,1.675,100766.61
0.7515,-0.147,-0.3413,-29.024,10.671,14.268,0.8383,100765.62
0.1909,0.0288,-0.1338,-10.915,-2.012,31.22,0.2349,100766.23
1.3638,0.0698,-0.3159,-32.073,-21.463,-1.646,1.4016,100765.21
1.1387,0.1152,-0.7896,1.89,-11.402,-1.28,1.3904,100764.57
1.291,0.2388,-0.3418,101.768,23.841,-27.561,1.3567,100764.84
1.6958,0.0762,0.0,146.402,8.537,-53.78,1.6975,100764.8
1.5044,-0.1387,0.6113,123.11,30.976,-36.098,1.6298,100765.5
0.7993,-0.333,-0.0967,19.939,-11.585,13.841,0.8713,100765.16
0.5176,-0.2939,-0.2095,19.207,-3.598,34.573,0.631,100766.01
0.4038,-0.1704,-0.0312,10.732,8.476,45.183,0.4394,100765.66
0.4126,-0.251,-0.2998,-38.78,-11.524,47.012,0.5684,100765.28
0.9185,-0.2769,-0.082,-33.476,-30.793,44.085,0.9628,100765.36
1.3882,-0.4258,-0.0454,-47.683,-17.134,39.817,1.4527,100764.71
1.2812,-0.5684,-0.4443,-46.89,-11.28,43.171,1.4704,100764.81
1.3506,-0.3413,0.2192,10.244,42.317,13.902,1.4102,100765.61
1.6763,-0.2466,0.0854,-43.963,-0.366,-14.268,1.6965,100764.91
1.1572,-0.252,-0.7246,-76.341,-14.268,-3.171,1.3884,100765.45
0.6865,-0.0942,-0.2583,5.488,20.427,9.634,0.7395,100764.88
0.2451,0.0654,0.0952,12.683,29.329,15.549,0.271,100764.82
-0.0288,0.0742,-0.1514,-28.293,7.683,-2.866,0.171,100764.89
0.1348,0.0918,-0.0591,-24.024,-3.476,-42.866,0.1734,100765.2
1.1377,0.1431,-0.0356,-25.0,-15.732,-78.293,1.1472,100765.57
1.7505,-0.1582,-0.8848,-13.049,-36.646,-41.768,1.9678,100765.2
1.1509,-0.0303,-0.2871,133.78,54.085,5.122,1.1865,100764.7
1.4912,0.1025,0.7222,153.11,44.695,-34.939,1.66,100765.05
1.3125,-0.1807,-0.4302,-19.878,-29.329,-13.232,1.393,100765.08
0.7358,-0.2212,-0.6245,7.5,1.524,26.89,0.9902,100764.85
0.1768,-0.1587,-0.1372,68.598,-2.378,42.439,0.2743,100764.69
0.292,-0.1494,0.1948,37.622,-25.793,25.61,0.3815,100765.15
0.6914,-0.2622,0.0703,-31.463,-22.683,18.659,0.7428,100764.53
1.3643,-0.2686,-0.2129,-71.707,-34.268,20.671,1.4066,100764.45
1.3145,-0.5181,-0.644,-57.256,-7.195,32.195,1.5527,100765.13
1.3711,-0.4165,-0.0093,15.061,37.805,11.341,1.433,100765.39
1.6021,-0.2412,0.4692,-12.439,47.744,-21.28,1.6867,100766.08
1.2964,-0.1987,-0.3013,-118.78,-8.902,-24.878,1.3457,100765.12
0.5659,0.0425,-0.1885,-78.476,-18.171,30.854,0.598,100764.39
-0.0176,0.1567,-0.2759,-73.659,-22.683,41.402,0.3178,100763.84
0.2422,0.1587,-0.2329,-55.793,-24.329,5.915,0.3716,100764.53
1.0962,0.104,-0.2974,-37.988,-31.829,-12.012,1.1406,100765.17
1.1533,-0.0405,-0.8921,-14.878,-21.829,2.073,1.4586,100764.45
1.0229,-0.1084,-0.3813,105.305,13.963,1.159,1.0971,100764.27
1.1904,-0.0146,0.5684,148.963,19.695,-22.439,1.3192,100764.63
1.2979,-0.0649,-0.5391,35.549,-61.159,-37.927,1.4068,100765.25
0.938,-0.0479,-0.8081,59.878,11.585,-39.451,1.239,100764.99
0.854,-0.0938,-0.0566,113.72,51.037,-30.915,0.861,100765.02
0.6772,-0.2227,0.1621,79.817,27.256,-2.866,0.7311,100765.3
0.4282,-0.2778,0.0854,12.561,1.768,11.768,0.5176,100765.39
0.9062,-0.3135,-0.2856,-55.427,-47.317,11.098,1.0006,100765.45
1.0684,-0.2471,-0.3291,-59.573,-33.171,30.305,1.1449,100765.36
1.3228,-0.4341,-0.7695,-58.659,-39.268,16.646,1.5907,100764.94
1.4312,-0.4111,-0.8188,2.256,9.695,22.927,1.6993,100764.02
1.1562,-0.1714,0.4712,89.207,137.378,17.683,1.2603,100764.68
1.0464,-0.1528,0.3726,-20.427,51.098,-10.366,1.1212,100764.05
0.8755,-0.1475,-0.5112,-117.622,-41.951,-22.439,1.0245,100764.59
0.7314,-0.1094,-0.4937,-60.0,-26.22,-8.963,0.8892,100764.12
0.2373,-0.0088,-0.207,0.061,1.037,10.427,0.315,100764.27
0.4844,0.0542,0.0747,13.171,-9.573,-8.537,0.4931,100764.98
1.2031,0.0981,-0.0713,-16.463,-20.793,-17.927,1.2092,100765.28
1.0918,-0.127,-0.6768,-20.427,-32.927,-10.854,1.2908,100765.88
1.2632,-0.0146,-0.1255,65.061,10.244,-38.171,1.2695,100765.35
1.3369,0.0698,0.0576,63.476,-3.537,-36.524,1.34,100765.3
0.9785,0.0386,-0.6958,15.0,-38.415,-33.476,1.2013,100765.43
1.0645,-0.0083,-0.5127,56.89,34.146,-45.671,1.1815,100765.23
1.0693,-0.0791,-0.0474,75.427,56.341,-16.159,1.0733,100765.1
0.4722,-0.1611,-0.0908,32.5,37.744,25.671,0.5071,100764.88
0.4385,-0.165,-0.0117,-7.744,3.354,27.683,0.4687,100764.83
0.9956,-0.2207,-0.1978,-50.976,-27.012,27.744,1.0388,100765.19
1.002,-0.2246,-0.2041,-46.28,29.329,24.878,1.0469,100764.82
1.4224,-0.3115,-0.269,-46.341,32.744,1.951,1.4807,100765.14
1.2671,-0.2134,-0.1753,-16.768,66.402,0.122,1.2968,100765.15
1.394,-0.0635,0.4033,-2.927,71.829,-25.549,1.4526,100765.53
1.1348,-0.0557,-0.293,-84.39,-8.72,-15.061,1.1733,100765.32
0.7231,-0.0767,-0.6182,-60.0,4.329,2.134,0.9544,100765.08
0.5586,-0.019,-0.1152,7.927,39.878,5.366,0.5707,100765.34
0.437,-0.0254,0.0522,8.171,7.439,11.22,0.4409,100765.32
1.0493,0.0303,0.0981,-6.89,-26.28,7.866,1.0543,100765.78
1.0229,0.0879,-0.3911,-15.793,-27.317,24.939,1.0987,100764.89
1.3193,0.02,-0.3511,33.902,-15.122,-2.805,1.3654,100764.37
1.356,0.0776,-0.2271,77.012,-36.707,-12.744,1.377,100765.56
1.3833,0.0015,-0.0444,100.061,-0.122,-23.537,1.384,100765.37
1.0317,-0.0537,0.1577,91.585,29.085,-18.78,1.0451,100765.83
0.6494,0.001,0.2773,52.988,-4.085,-15.244,0.7062,100766.41
0.6909,-0.1694,-0.2471,-14.085,-22.073,-9.939,0.7531,100766.5
0.4907,-0.2231,-0.3525,-11.524,6.463,9.329,0.6441,100765.85
0.7368,-0.1958,0.0479,-13.415,-6.951,12.561,0.7639,100765.18
1.106,-0.2119,-0.1006,-57.866,-13.293,25.183,1.1306,100765.43
1.4043,-0.2412,0.1484,-50.0,-4.39,24.024,1.4326,100765.29
1.2065,-0.248,-0.1372,-67.683,-5.732,26.28,1.2394,100765.62
1.1919,-0.1577,-0.2061,-42.744,7.195,-2.866,1.2198,100766.41
1.5215,-0.1543,-0.2515,-22.988,-8.902,-25.549,1.5498,100766.23
0.9404,-0.1187,-0.1719,-10.61,8.476,-5.671,0.9633,100766.48
0.5278,-0.0146,0.0381,-13.354,-22.378,-5.549,0.5294,100766.17
0.5562,-0.0596,-0.3916,-46.585,-58.902,-7.073,0.6828,100765.96
0.6816,-0.0562,-0.3999,-9.329,-18.415,3.171,0.7923,100766.16
1.1001,0.103,0.0942,18.78,-8.232,10.0,1.1089,100765.58
0.9956,0.019,-0.6016,-28.537,-28.049,16.646,1.1634,100765.12
1.1958,0.0215,-0.5015,31.159,-60.976,-3.72,1.2969,100765.06
1.2056,0.02,0.0371,65.61,-14.695,-23.598,1.2063,100765.24
1.3101,-0.0303,-0.1133,16.829,-0.671,-40.549,1.3153,100765.24
0.6675,-0.1616,-0.0562,29.512,30.366,3.78,0.6891,100765.01
0.7344,-0.2324,-0.0127,10.244,29.451,26.098,0.7704,100765.22
0.8511,-0.2139,-0.0044,-39.085,-18.476,39.024,0.8775,100763.52
1.0034,-0.2017,-0.521,-80.549,-24.939,39.512,1.1485,100763.6
1.2974,-0.3115,-0.2949,-32.134,-0.915,25.0,1.3664,100764.02
0.9907,-0.2734,-0.2563,-23.11,31.22,17.195,1.0593,100764.09
1.2109,-0.0786,0.1919,-18.049,52.256,-28.415,1.2286,100765.75
1.4604,-0.127,-0.5186,-91.22,0.061,-47.866,1.555,100765.03
1.0571,-0.1392,-0.6313,-38.11,51.707,-20.427,1.2391,100765.35
0.5107,0.0347,0.1797,36.524,75.854,3.232,0.5425,100765.58
0.3457,-0.0049,-0.0415,-8.963,15.793,-2.927,0.3482,100765.02
0.7471,-0.0347,-0.0957,-4.817,12.256,-10.183,0.754,100765.21
1.0718,0.0171,-0.064,8.659,6.951,6.951,1.0738,100765.01
1.2397,-0.0132,-0.1973,17.622,-6.463,4.024,1.2554,100765.08
1.4219,0.0728,-0.1504,45.671,-37.195,-6.22,1.4317,100765.52
1.3447,0.0664,-0.2109,64.146,-29.207,-19.085,1.3628,100764.61
1.5762,0.0015,-0.1216,76.341,2.988,-33.049,1.5809,100765.05
1.1646,-0.0249,0.167,77.988,57.134,-6.951,1.1767,100764.52
0.7739,-0.1313,0.0977,41.707,18.902,18.902,0.791,100765.82
0.3999,-0.1973,-0.2383,8.841,16.585,29.512,0.5056,100765.23
0.2695,-0.168,0.0884,6.951,37.561,26.341,0.3297,100765.37
0.6113,-0.1938,0.2134,-34.817,28.841,23.171,0.6759,100765.74
0.9824,-0.1299,0.0093,-86.89,-5.915,23.232,0.991,100765.89
1.4756,-0.2954,-0.2437,-96.098,-7.134,9.512,1.5245,100766.11
1.2573,-0.2925,0.0117,-38.171,38.902,32.866,1.2909,100765.93
1.1299,-0.0269,0.7246,-1.402,48.293,-2.927,1.3425,100766.13
2.0044,-0.292,-0.2344,-85.061,-14.512,-45.915,2.0391,100765.94
1.2002,-0.1494,-0.1875,-5.0,70.61,11.037,1.2239,100765.68
0.2661,0.1484,0.4971,40.915,55.122,29.329,0.583,100765.58
0.1802,0.0967,-0.2793,-48.354,-21.159,2.256,0.3461,100765.54
0.2275,0.1152,-0.3735,-20.122,-9.085,-15.0,0.4523,100765.76
0.7954,0.1367,0.0581,19.085,-3.11,-33.537,0.8092,100765.92
1.1279,-0.042,-0.1343,24.207,0.122,-30.366,1.1367,100766.16
1.5796,-0.1396,0.1812,93.841,-16.89,-12.927,1.5961,100765.57
1.6831,-0.0933,0.8101,124.207,-4.39,-0.61,1.8702,100765.88
1.6841,-0.1587,0.1807,45.0,-20.732,-11.037,1.7012,100765.88
1.2065,-0.0278,0.0156,27.256,-18.537,2.683,1.207,100765.53
0.5225,-0.0425,-0.1538,16.829,-11.524,20.305,0.5463,100766.22
0.2695,-0.1245,-0.2002,12.744,-22.683,8.11,0.3581,100766.41
0.3071,-0.1143,0.0522,6.707,-22.744,6.28,0.3318,100765.77
0.4619,-0.1675,0.1094,-25.549,-5.061,13.72,0.5034,100765.55
1.543,-0.4546,0.2598,-48.415,-23.841,9.024,1.6294,100765.76
1.6982,-0.4141,-0.1968,-72.195,-8.963,21.341,1.759,100765.43
1.666,-0.1147,0.5161,-20.427,48.476,-2.195,1.7479,100765.78
1.3696,0.0112,0.1025,-87.927,13.963,-24.268,1.3735,100765.45
0.8203,0.0146,-0.2935,-85.915,7.012,-17.622,0.8713,100766.55
0.4551,0.1357,0.1255,-32.439,28.354,-19.39,0.4912,100766.38
0.2725,0.0469,-0.2798,-59.207,18.171,-26.646,0.3933,100767.12
0.8643,0.1714,0.2148,16.829,6.22,-3.354,0.9069,100767.03
1.623,-0.043,-0.3359,-1.951,-49.39,-4.939,1.658,100766.38
2.0083,-0.0088,0.1265,90.244,-37.317,27.683,2.0123,100766.38
1.3052,0.0894,0.0483,107.744,-9.451,44.024,1.3091,100766.15
1.6006,-0.0015,0.1133,104.695,-32.256,-8.659,1.6046,100765.47
1.0474,0.0732,0.3071,87.744,-0.244,7.073,1.0939,100765.2
-0.0249,0.0679,-0.3228,27.744,21.585,23.902,0.3308,100765.76
0.1011,-0.0439,-0.2666,42.805,22.988,-10.549,0.2885,100766.15
0.5674,-0.1978,0.2427,55.0,17.744,-15.488,0.648,100766.82
0.6582,-0.3271,0.4575,-9.756,6.402,2.805,0.8658,100766.7
1.3433,-0.314,0.189,-90.549,-41.951,1.646,1.3923,100766.38
1.4292,-0.4756,-0.144,-85.488,-14.634,13.049,1.5131,100765.28
1.0029,-0.2729,-0.0435,-49.024,25.976,6.159,1.0403,100765.56
1.9282,-0.1221,0.1948,-44.939,-0.183,-62.927,1.9419,100764.91
1.8701,-0.1206,-0.3296,-68.232,-4.756,-43.415,1.9028,100764.44
0.8374,-0.0239,-0.2358,4.573,29.146,18.049,0.8703,100764.2
0.3364,0.1343,0.4404,54.634,30.549,33.293,0.5703,100763.91
0.0371,0.1499,0.1831,-15.183,3.537,19.512,0.2395,100763.18
0.2554,0.0908,-0.2197,-41.402,-24.268,-2.622,0.3489,100763.86
0.8384,0.1826,0.1304,7.073,-30.244,-2.561,0.8679,100764.49
1.437,0.0425,-0.1265,5.244,-49.024,-7.439,1.4432,100764.85
1.7246,-0.1182,-0.1582,78.476,2.866,1.22,1.7359,100765.23
1.3638,0.021,0.6509,156.646,29.939,6.037,1.5113,100766.39
1.7817,-0.1938,0.2754,66.585,-23.841,-33.659,1.8133,100767.74
1.2222,-0.104,-0.1904,18.354,-21.524,13.598,1.2413,100766.8
0.0039,-0.0928,-0.4521,17.378,5.488,44.207,0.4616,100766.69
0.2383,-0.2031,-0.2139,17.927,-15.0,-3.11,0.3792,100766.38
0.6616,-0.2295,-0.0938,-20.061,-15.61,-9.451,0.7065,100765.77
0.7114,-0.2739,-0.0605,-58.72,5.366,12.561,0.7647,100765.32
1.1162,-0.2354,0.2734,-76.707,-35.061,18.476,1.1731,100764.48
1.377,-0.4839,0.1621,-98.902,-17.012,8.293,1.4685,100764.36
1.334,-0.3164,0.0015,-85.549,29.085,5.0,1.371,100764.88
1.7007,-0.1665,0.3838,-36.707,30.549,-17.195,1.7514,100765.88
1.3447,0.0137,0.166,-69.939,18.476,-16.524,1.355,100765.38
0.522,0.1855,-0.186,-80.549,21.159,0.0,0.5844,100765.43
0.2466,0.2051,-0.2607,-54.451,12.561,-8.293,0.4133,100765.8
0.4214,0.0752,-0.6729,-47.5,-5.854,-16.951,0.7975,100765.84
0.7437,0.1201,-0.1836,19.817,25.732,-7.683,0.7753,100765.73
1.1421,0.2632,0.3618,21.159,-3.049,-3.476,1.2266,100764.92
1.5542,0.0112,-0.5864,-20.854,-49.634,-8.11,1.6612,100765.06
1.9912,0.0845,0.2349,131.707,12.866,11.951,2.0068,100765.05
1.3057,0.2046,0.6768,168.598,46.768,46.22,1.4848,100765.27
1.3301,0.0186,0.5386,85.061,1.037,0.915,1.4351,100765.32
1.0107,0.0449,-0.0112,-2.012,-47.622,1.646,1.0118,100765.48
0.3711,-0.1523,-0.7891,-24.939,-30.305,19.085,0.8852,100765.22
0.3589,-0.1929,-0.4707,56.463,-6.768,30.061,0.6225,100765.26
0.4614,-0.1431,0.2612,76.22,12.378,45.0,0.5492,100765.91
0.5171,-0.2412,0.0464,-24.512,-1.463,47.744,0.5725,100765.43
0.9038,-0.2539,-0.0264,-53.293,-27.927,27.439,0.9392,100766.05
1.5835,-0.5181,0.2158,-28.598,-3.659,4.634,1.68,100766.03
1.2383,-0.2881,0.0386,-24.878,42.683,19.329,1.2719,100766.51
1.748,-0.1899,0.4097,-7.5,33.354,-37.622,1.8054,100766.61
1.5928,-0.1997,-0.2974,-59.146,14.268,-32.195,1.6326,100767.07
0.4604,0.0356,-0.4258,-0.61,40.122,13.72,0.6282,100767.04
-0.1353,0.2642,-0.1343,35.061,5.244,2.866,0.3257,100766.66
0.4609,0.0176,-0.2402,-11.341,-10.793,-48.72,0.5201,100766.74
0.8999,-0.1699,0.0254,3.293,8.537,-37.805,0.9162,100766.93
1.165,0.064,0.6621,16.037,-0.305,-6.951,1.3416,100766.19
1.2783,0.0664,-0.1226,-59.024,-59.268,-15.61,1.2859,100765.64
1.7134,-0.0713,-0.4209,-3.963,-37.134,-25.671,1.7658,100765.51
1.3706,0.1982,0.356,114.268,22.805,2.683,1.4299,100765.75
1.4443,-0.1191,0.0381,72.256,-15.244,-31.585,1.4497,100766.05
1.4761,-0.2324,-0.1743,50.427,-28.232,-23.659,1.5044,100766.16
0.7188,-0.2891,-0.3652,49.451,-6.829,20.488,0.8565,100766.01
0.3726,-0.1709,-0.2344,58.841,-13.476,32.866,0.4722,100765.4
0.2231,0.0068,0.1924,38.963,-11.037,41.098,0.2947,100765.66
0.3892,-0.019,-0.0425,-52.439,-34.39,35.61,0.3919,100765.75
0.9224,-0.062,-0.0244,-67.866,-45.976,31.463,0.9248,100766.55
1.2437,-0.3721,0.0845,-58.78,-22.5,24.268,1.3009,100766.55
1.4707,-0.397,-0.4409,-76.28,-17.561,12.927,1.5859,100766.66
1.8828,-0.2549,-0.1089,-15.427,52.805,-21.28,1.9031,100766.62
1.7095,-0.2983,-0.2769,-29.329,49.573,-11.524,1.7573,100766.71
0.7397,-0.1279,-0.0347,-4.573,62.073,25.061,0.7515,100766.89
0.2334,0.2085,0.4199,-10.183,37.195,27.683,0.5237,100766.54
-0.0557,0.2021,-0.3599,-97.195,-5.244,10.61,0.4165,100766.16
0.1851,-0.0078,-0.5454,-64.39,-54.634,-34.512,0.576,100766.47
1.3398,0.0586,0.1934,-2.5,-28.476,-65.427,1.355,100767.57
0.9355,0.1245,-0.3887,-24.939,-9.085,-2.256,1.0207,100766.69
1.3193,0.0269,-0.2295,33.232,-10.854,-17.561,1.3394,100766.66
1.5405,0.0239,0.1235,64.695,25.305,-32.317,1.5457,100766.5
1.5122,-0.0347,-0.3042,40.61,32.195,-38.415,1.5429,100766.51
1.1401,0.0479,-0.2266,71.829,63.11,-22.439,1.1634,100766.86
0.8711,-0.0112,-0.1143,77.622,41.098,1.951,0.8786,100766.91
0.6328,-0.1514,-0.1831,63.293,8.841,31.402,0.6759,100767.43
0.3877,-0.1992,0.0356,57.012,30.854,41.341,0.4373,100766.59
0.6763,-0.2109,0.2954,10.183,-3.963,35.671,0.7675,100766.83
1.2568,-0.2158,0.0322,-51.829,-36.22,41.28,1.2756,100766.51
1.2588,-0.4214,0.0469,-35.488,-1.768,42.622,1.3283,100766.9
0.9937,-0.2559,0.0156,-28.293,14.207,24.146,1.0262,100767.56
1.5234,-0.2168,0.1001,-26.402,-0.549,-43.171,1.542,100767.08
1.811,-0.3325,-0.3442,-43.415,-17.012,-54.512,1.8732,100766.36
0.9473,-0.1187,-0.0669,13.171,34.329,-5.976,0.957,100765.82
0.4092,0.0264,0.2188,2.5,23.659,10.183,0.4647,100765.64
0.1333,-0.0605,-0.3486,-54.329,-27.927,7.256,0.3781,100765.88
0.5513,-0.0532,-0.1035,-12.683,-9.451,-9.939,0.5634,100766.18
1.228,0.0151,0.4976,9.939,11.646,-7.134,1.3251,100766.42
0.896,0.0845,-0.5469,-58.415,-70.244,27.5,1.0531,100766.71
1.4316,0.0059,-0.5112,52.378,-55.793,-8.11,1.5202,100766.69
1.4624,0.1411,0.918,161.646,23.232,-14.085,1.7324,100767.66
1.5054,-0.1597,-0.7021,-50.122,-61.098,-32.927,1.6687,100767.64
0.4678,-0.0391,-0.5508,27.5,15.366,21.463,0.7237,100767.75
0.1011,-0.0142,-0.0176,66.341,60.061,15.061,0.1036,100767.22
0.3911,-0.0962,0.0503,14.756,19.024,1.768,0.4059,100766.67
0.5352,-0.167,-0.2808,-49.207,0.244,7.256,0.627,100766.53
0.8311,-0.2251,-0.0156,-24.634,29.268,-0.854,0.8611,100766.2
1.7793,-0.4482,0.5015,-26.585,-8.476,-26.22,1.9022,100766.27
1.5225,-0.2607,-0.3921,-91.585,-21.646,-2.378,1.5936,100766.96
1.4028,-0.0605,-0.1851,-18.537,22.317,-13.11,1.4163,100767.47
1.1182,-0.0479,0.1143,17.805,66.585,-11.707,1.125,100767.6
0.9282,0.0107,0.5352,18.476,43.72,-1.951,1.0715,100767.95
0.6128,-0.0366,-0.2744,-62.073,-24.512,10.671,0.6724,100767.73
0.4956,-0.0518,-0.7144,-36.89,-35.366,14.878,0.871,100767.08
0.5684,0.0498,-0.0405,47.134,17.317,18.598,0.572,100766.7
1.1782,0.1514,0.1138,35.488,25.305,-3.232,1.1933,100766.76
1.5151,-0.1157,-0.3125,17.134,13.049,-12.805,1.5514,100766.94
1.4136,0.1582,0.0869,92.012,35.0,-12.317,1.4251,100766.84
1.8867,0.145,0.2217,98.415,-6.524,-45.427,1.9052,100767.01
1.5366,-0.1138,-0.1421,49.39,-64.146,2.927,1.5474,100766.91
0.4355,-0.019,0.2529,67.378,-9.817,45.732,0.504,100766.58
0.1675,-0.0664,-0.1245,3.537,-25.488,39.146,0.219,100766.93
0.438,-0.1675,-0.269,-7.012,-20.549,22.927,0.5406,100766.96
0.6675,-0.1655,0.1519,-7.683,12.378,32.317,0.7043,100767.72
0.7988,-0.1621,0.0781,-52.012,-0.976,52.012,0.8188,100768.92
1.6079,-0.2275,0.0283,-61.28,-37.012,41.89,1.6242,100768.07
1.3853,-0.3237,-0.0435,-57.073,2.073,47.866,1.4232,100768.44
1.0771,-0.2114,-0.2451,-52.927,16.341,10.122,1.1247,100768.34
1.6411,-0.2568,-0.2661,-35.732,-7.988,-40.244,1.6823,100767.41
1.0801,-0.2212,-0.1753,-10.61,40.61,-8.232,1.1163,100766.7
0.1816,0.0244,0.1562,13.171,46.22,20.976,0.2408,100767.3
0.0352,0.1558,0.1548,-24.756,-14.451,6.768,0.2224,100767.38
0.3784,-0.0259,-0.1797,-53.049,-17.134,-20.244,0.4197,100766.81
1.021,-0.0176,-0.0371,-16.402,-7.073,-21.951,1.0218,100766.77
1.5469,-0.1011,-0.3555,-8.171,-13.598,-16.646,1.5904,100767.48
1.5073,-0.0928,-0.5537,50.183,-27.073,-2.012,1.6085,100767.37
1.5146,0.0205,0.1665,146.585,-7.012,-20.0,1.5239,100767.43
1.9819,-0.2227,0.1216,108.537,-42.378,-28.293,1.9981,100766.97
0.7026,-0.0674,-0.4023,68.841,-9.878,27.805,0.8125,100765.78
0.1821,-0.0195,-0.0625,90.183,2.622,10.061,0.1935,100766.0
0.4258,-0.189,0.0796,44.39,-7.317,-9.634,0.4726,100766.42
0.5488,-0.2759,-0.2729,-6.707,-29.451,14.39,0.6722,100765.98
1.0166,-0.3647,0.1147,7.805,-10.427,37.927,1.0861,100765.53
0.8926,-0.2056,0.3926,-24.512,-4.268,74.451,0.9965,100766.68
0.5576,-0.3804,-0.6802,-116.951,-45.854,53.476,0.9583,100767.29
1.4517,-0.313,-0.1665,-58.476,-6.22,-19.573,1.4943,100767.01
1.646,-0.2124,0.0264,-48.841,39.878,-49.817,1.6599,100766.68
1.5728,-0.3501,-0.5293,-65.488,17.5,-47.195,1.696,100766.55
1.0615,-0.1973,0.0269,13.537,92.805,-19.39,1.08,100767.18
0.3877,0.0015,-0.2197,7.012,67.5,1.524,0.4456,100766.69
0.3374,0.0005,-0.0791,18.963,39.939,-6.22,0.3466,100766.56
0.4033,0.0879,0.4751,22.012,35.305,1.098,0.6294,100766.57
0.8447,0.0088,-0.0117,-43.78,7.622,-0.915,0.8449,100766.59
1.3149,-0.2661,-0.749,-30.244,-8.293,-13.476,1.5365,100766.74
1.9873,-0.1416,0.4932,107.622,10.549,-25.549,2.0525,100767.22
1.6968,-0.0571,0.5361,76.524,-14.451,-20.61,1.7804,100767.69
1.4678,-0.0322,-0.2085,-0.244,-44.817,-28.963,1.4829,100767.2
0.8584,-0.0625,-0.6216,12.012,-25.915,8.963,1.0617,100766.7
0.0938,0.0483,-0.3081,73.537,14.207,31.402,0.3257,100766.08
0.2769,-0.0688,0.0635,65.793,-5.183,13.598,0.2923,100766.23
0.5156,-0.2627,0.0259,-0.915,-14.268,15.366,0.5793,100766.7
0.8979,-0.3696,-0.1045,-38.598,-8.11,28.049,0.9767,100766.57
1.0063,-0.3076,-0.0293,-22.317,8.415,40.0,1.0527,100767.45
1.2563,-0.4365,0.2305,-20.549,8.049,9.756,1.3498,100767.98
1.8989,-0.4043,0.147,-38.049,-2.866,-44.512,1.947,100768.27
2.1094,-0.3442,0.1519,-30.122,-2.744,-59.695,2.1427,100767.51
0.9102,-0.2124,-0.2808,-44.817,9.024,-14.451,0.9759,100766.83
0.6064,0.0073,-0.2007,-18.598,-25.366,-7.439,0.6388,100766.56
0.3325,0.0713,-0.1875,-26.28,-6.402,13.171,0.3883,100766.85
-0.0757,0.1807,-0.041,-20.305,28.72,13.72,0.2001,100766.69
0.6045,0.3184,0.3647,-20.61,15.793,-7.256,0.7745,100766.34
1.1758,0.0723,-0.5654,-68.354,-35.427,7.927,1.3067,100765.8
1.4551,-0.3228,-0.7007,44.817,-17.805,9.817,1.6469,100766.04
1.4727,-0.0605,0.856,195.61,28.598,-5.366,1.7044,100766.31
1.5825,-0.207,0.3418,82.256,-46.22,-38.354,1.6322,100766.78
1.3511,-0.2139,-0.4302,20.122,-55.122,-31.829,1.4339,100767.02
0.4893,-0.1621,-0.4326,47.317,-15.122,4.085,0.6729,100767.32
0.0605,-0.1611,-0.1846,63.598,-2.744,3.293,0.2524,100767.8
0.3896,-0.2593,0.2407,48.78,0.732,-3.659,0.5263,100768.39
1.1416,-0.4966,0.0103,-38.171,-1.524,17.378,1.245,100767.38
1.3994,-0.1694,0.2573,-54.39,12.195,62.012,1.4329,100767.93
1.2002,-0.0977,0.0942,-88.232,-23.354,58.171,1.2078,100767.74
1.0527,-0.1592,-0.7417,-142.256,-15.183,9.878,1.2976,100768.34
1.9385,-0.2065,0.0005,-51.22,32.805,-74.146,1.9494,100767.7
1.6182,-0.2939,-0.3589,-80.427,13.963,-47.927,1.6833,100767.1
0.2119,-0.2065,-0.3765,-38.232,24.634,1.098,0.4788,100766.88
0.1953,-0.0811,0.4521,16.159,0.549,-12.805,0.4992,100766.83
0.3203,-0.1221,-0.1372,-51.768,-16.768,-3.293,0.3692,100766.57
0.583,-0.0957,-0.0112,-13.78,58.78,8.902,0.5909,100767.72
0.8667,0.2446,0.5688,6.159,50.427,15.549,1.0652,100768.2
1.2612,0.0112,-0.9712,-82.256,-24.939,-4.573,1.5919,100767.95
1.7476,0.0317,-0.7373,77.561,22.134,-15.732,1.897,100767.77
1.605,0.1753,0.562,194.756,38.232,-14.146,1.7095,100768.5
1.2358,-0.0435,0.2212,79.146,-12.439,-16.22,1.2562,100768.45
0.8823,-0.0762,-0.2119,33.78,-38.537,-8.598,0.9106,100767.89
0.4033,-0.0972,-0.2295,47.378,5.122,-5.732,0.4741,100768.57
0.7935,-0.1685,0.2842,61.22,10.61,-11.707,0.8595,100768.61
0.7378,-0.2588,-0.0205,-7.866,3.354,25.915,0.7821,100768.35
1.0503,-0.2593,-0.2095,-35.793,-16.22,47.195,1.1019,100768.2
1.2554,-0.3091,0.1567,-12.439,-12.439,56.463,1.3023,100767.59
1.0649,-0.2979,0.2144,-34.695,14.695,32.927,1.1264,100768.6
1.8804,-0.251,-0.5918,-99.634,-24.39,-22.927,1.9872,100766.31
0.6221,-0.1113,-0.498,-20.915,8.963,28.598,0.8046,100765.3
0.3467,0.0195,0.3188,29.146,-29.451,22.805,0.4714,100764.57
0.1167,-0.0923,-0.2651,-32.317,-62.927,23.415,0.304,100765.12
0.3564,-0.0542,-0.1665,18.11,4.329,6.463,0.3971,100766.01
1.0742,0.0688,0.5786,51.22,32.805,-0.793,1.2221,100765.84
0.9126,0.0249,-0.2344,-27.744,-20.183,5.915,0.9425,100766.45
1.4048,0.0088,-0.5586,0.854,-35.61,-18.78,1.5118,100766.64
1.7861,-0.1128,-0.1836,48.598,-57.683,-36.28,1.7991,100766.4
1.2808,-0.0498,-0.2651,24.695,4.573,-8.293,1.3089,100766.25
0.395,-0.2207,-1.0381,12.5,25.854,13.171,1.1324,100766.38
0.4976,-0.2627,0.2109,116.098,67.256,1.402,0.6009,100767.21
0.501,-0.2231,0.7241,43.598,25.244,12.988,0.9084,100767.32
0.5527,-0.2412,-0.3022,-99.695,-26.768,20.0,0.6746,100767.43
1.1245,-0.1997,-0.2617,-68.049,-26.829,17.378,1.1717,100767.37
1.3179,-0.3467,-0.0605,-33.659,5.122,19.512,1.3641,100768.32
1.2637,-0.2271,-0.0908,-11.037,40.671,6.22,1.2871,100767.56
1.895,-0.1899,0.2017,8.171,32.439,-39.817,1.9152,100766.63
1.3975,-0.2266,-0.3418,-21.646,36.768,-26.28,1.4564,100766.43
0.6909,-0.0415,-0.0869,27.5,35.976,-7.012,0.6976,100765.79
0.4219,0.0308,-0.0234,14.207,19.512,-9.695,0.4236,100765.43
0.1265,0.0791,-0.2769,-5.305,12.073,-11.707,0.3145,100765.41
0.5317,0.0898,0.0796,21.098,4.146,-29.817,0.5451,100766.38
0.9648,0.0918,-0.0215,-1.951,-42.988,-18.049,0.9694,100766.25
2.0908,0.1279,0.064,138.049,-19.695,-0.122,2.0957,100766.78
1.1489,0.2954,0.4414,143.415,17.805,32.439,1.2658,100766.54
1.437,-0.0645,-0.1694,66.646,-43.963,-16.707,1.4484,100766.01
1.2998,-0.106,-0.54,61.341,-34.085,-9.39,1.4115,100766.08
0.6255,-0.0762,-0.3594,95.61,-13.293,25.061,0.7254,100765.52
0.4614,-0.1909,-0.1064,85.61,-12.622,29.634,0.5106,100765.73
0.1475,-0.1016,0.084,48.537,5.427,34.39,0.1978,100764.88
0.3091,-0.0747,0.0669,-3.537,-3.902,21.159,0.3249,100765.38
1.2012,-0.1157,0.0278,-43.049,-11.768,9.573,1.2071,100765.37
1.3013,-0.2153,-0.354,-47.988,-21.585,25.427,1.3656,100764.88
1.0723,-0.1836,-0.4263,7.927,18.841,16.768,1.1684,100764.52
1.4023,-0.0122,0.6187,79.512,35.488,-26.524,1.5328,100765.46
1.4355,-0.1602,-0.0317,-19.634,-0.976,-37.561,1.4448,100766.43
0.9272,-0.1323,-0.6074,-19.512,8.232,-22.561,1.1164,100766.17
0.6284,-0.0195,-0.0669,49.634,38.841,-15.427,0.6323,100766.46
0.3105,0.0068,-0.3345,21.463,16.524,-11.585,0.4565,100766.41
0.4878,0.043,-0.5425,17.073,-26.159,-23.049,0.7308,100765.79
1.0259,0.0103,-0.2324,41.646,-0.488,-23.11,1.0519,100766.42
1.0293,0.3169,-0.0962,43.171,2.073,6.463,1.0813,100766.77
1.7505,0.1968,-0.6069,52.561,-50.732,-9.756,1.8631,100765.84
1.8931,0.5117,0.1045,160.366,-7.073,18.72,1.9638,100766.59
0.9458,0.4663,0.0029,159.085,6.707,32.622,1.0545,100766.77
1.1719,0.1758,-0.2266,130.488,-42.988,-9.878,1.2064,100767.29
1.1699,0.0479,-0.2646,123.78,-30.061,-19.024,1.2004,100767.07
0.6992,-0.0869,-0.4429,110.244,-8.415,-5.61,0.8322,100767.29
0.3975,-0.1201,-0.165,117.256,19.329,-3.171,0.4468,100766.69
0.5889,-0.0532,0.3491,111.22,23.598,-2.866,0.6866,100766.49
1.0078,0.0088,0.3755,24.512,-60.122,24.817,1.0755,100765.62
0.6709,-0.0498,-0.6025,-46.768,-58.598,31.646,0.9031,100765.34
1.5786,-0.2119,-0.4785,37.256,-71.585,-31.28,1.6631,100764.88
1.6577,0.0879,0.0576,101.037,-33.963,-23.11,1.661,100765.38
0.9292,0.2021,-0.0688,62.866,-19.573,-28.902,0.9534,100764.79
1.0654,0.1973,-0.46,14.146,-88.049,-79.573,1.1771,100765.05
1.3247,0.2178,-0.6567,32.988,-74.085,-75.671,1.4945,100765.02
0.6743,0.1274,-0.7437,87.744,22.073,-27.439,1.0119,100765.51
0.252,0.1265,-0.3882,158.72,71.89,-12.378,0.4798,100764.99
0.4062,0.1069,0.2202,196.28,72.805,-13.902,0.4743,100765.34
0.4351,0.0938,0.667,166.098,28.659,-19.146,0.8018,100764.99
1.2559,0.1807,-0.4927,46.707,-41.159,-44.451,1.3611,100764.51
1.8052,-0.0137,-0.9336,106.22,11.28,-35.854,2.0323,100764.37
1.5195,0.5664,0.6611,238.415,13.902,2.561,1.7513,100763.91
1.3335,0.3691,-0.0664,114.451,-17.439,-2.744,1.3852,100764.28
1.2852,0.1641,-0.6572,105.915,3.11,-8.72,1.4528,100764.33
0.8198,0.2803,0.2383,160.0,101.829,-3.78,0.8986,100765.34
0.7397,0.0371,-0.0054,64.329,22.805,-15.61,0.7407,100766.23
1.0322,-0.2969,-0.9644,1.22,-62.561,0.305,1.4435,100765.66
0.5103,-0.1152,-0.3374,87.439,20.488,45.61,0.6225,100765.96
0.5054,-0.0444,0.1519,82.439,-24.024,45.061,0.5296,100765.35
1.0879,-0.29,-0.4009,30.793,-64.329,17.012,1.1951,100765.12
1.127,0.0557,-0.168,-1.341,4.207,-33.415,1.1408,100766.04
1.4692,-0.0264,-0.2515,-10.122,-4.817,-69.451,1.4908,100765.88
1.2798,-0.1123,-0.208,10.305,16.402,-50.366,1.3014,100766.13
0.5435,-0.1382,-0.374,38.415,-14.085,-15.61,0.674,100765.47
0.2451,-0.1553,-0.2393,82.744,-2.378,-32.927,0.3761,100765.82
0.4888,-0.0605,0.3086,134.512,15.061,-36.768,0.5812,100765.84
1.1592,-0.02,0.2339,81.159,-16.524,-33.171,1.1827,100765.88
1.583,-0.0732,-0.7803,29.695,-9.573,-10.549,1.7664,100765.27
1.3896,0.0688,0.0718,138.659,43.659,42.195,1.3932,100766.3
0.9175,0.1021,0.1562,98.963,-8.049,39.756,0.9363,100766.09
1.5562,-0.0137,-0.5742,25.732,-50.305,-27.5,1.6588,100766.54
1.2451,0.1016,0.4404,98.902,27.866,-2.805,1.3246,100766.41
0.2236,0.0889,0.2217,9.939,47.927,2.317,0.3272,100766.17
0.5205,-0.1147,-0.5557,-59.024,11.951,-31.707,0.77,100766.26
0.8096,-0.1909,-0.5161,-7.195,31.28,-6.28,0.9789,100765.81
0.5537,-0.1025,-0.1528,30.915,19.634,31.463,0.5835,100765.98
0.9873,-0.1968,-0.0781,3.293,-25.0,30.549,1.0098,100765.39
1.6235,-0.4521,-0.1787,-9.512,-20.976,31.829,1.6948,100765.17
1.104,-0.3687,-0.0674,22.988,15.0,55.244,1.1659,100764.01
1.1016,-0.1299,0.7397,40.488,8.78,1.463,1.3332,100765.52
1.7642,-0.1172,0.2505,-75.854,-79.695,-53.659,1.7857,100765.27
1.0884,-0.0547,-0.4043,-116.463,-62.622,-34.207,1.1623,100765.2
0.7075,0.0327,-0.0508,-54.634,-17.805,-17.866,0.7101,100765.77
0.292,-0.0728,-0.3843,-44.756,-68.537,0.671,0.4881,100764.85
1.002,-0.0171,-0.165,36.159,40.183,9.695,1.0156,100764.52
0.6763,0.1553,0.1851,79.39,104.756,53.476,0.7181,100764.88
1.127,-0.1758,-0.0771,21.098,69.085,25.915,1.1432,100765.16
1.5264,-0.2812,0.3647,32.378,64.39,0.915,1.5943,100765.75
1.4644,-0.1616,-0.0723,-19.817,-21.159,-33.171,1.475,100766.17
1.5811,-0.0449,-0.4321,-22.073,-74.817,-48.171,1.6397,100765.78
1.0044,-0.1162,-0.5107,18.354,-20.976,-19.634,1.1328,100765.59
0.5127,-0.085,-0.1934,56.89,-3.841,5.183,0.5545,100765.55
0.355,-0.0913,0.1162,45.976,-4.451,11.037,0.3845,100765.67
0.6089,-0.1558,0.0527,-4.39,-15.061,9.573,0.6307,100765.38
0.9805,-0.1279,-0.0068,-37.927,-1.89,24.329,0.9888,100765.54
1.0195,-0.2202,-0.2549,-47.012,16.463,29.817,1.0737,100765.29
1.3354,-0.3325,-0.082,-35.915,0.732,0.915,1.3787,100765.94
1.8608,-0.3457,-0.0654,-27.927,-19.756,-17.927,1.8938,100765.97
0.6074,-0.1963,-0.1387,-8.11,18.415,7.317,0.6532,100765.36
0.2852,-0.0615,-0.2295,-9.146,-19.268,3.598,0.3712,100764.8
0.0244,0.0127,0.1196,8.963,-3.78,-4.39,0.1228,100765.21
0.4688,-0.0605,0.2368,-18.659,8.598,-23.963,0.5287,100765.42
1.2148,-0.0547,-0.2783,-52.927,-15.183,-15.122,1.2475,100765.2
1.1748,-0.1377,-0.3311,0.183,-23.598,8.11,1.2283,100765.05
1.8076,-0.0586,0.623,77.866,-23.11,-10.793,1.9129,100765.3
1.6709,0.0195,0.0132,11.585,-37.561,-12.378,1.6711,100765.12
1.751,-0.0601,-0.834,-33.476,-67.927,-28.476,1.9404,100765.84
0.8398,-0.0391,-1.2554,20.61,-13.415,22.5,1.5109,100765.26
-0.1934,0.0693,-0.2715,135.854,74.268,44.085,0.3404,100765.34
0.04,0.041,0.3325,102.744,3.049,12.439,0.3374,100765.02
0.7563,-0.2266,-0.1709,-22.256,-53.78,14.878,0.8078,100765.17
1.0928,-0.3926,-0.4668,-51.037,-34.756,45.122,1.2515,100764.53
1.1611,-0.5186,-0.2402,-6.28,9.878,44.817,1.2942,100764.54
1.478,-0.5732,0.1831,9.024,10.061,29.573,1.5958,100764.3
1.2217,-0.3262,0.3721,-25.671,40.366,11.402,1.3181,100765.09
1.4155,-0.271,-0.0127,-90.061,33.659,-36.768,1.4413,100765.46
0.9429,-0.1914,-0.3286,-89.878,18.963,-28.841,1.0167,100765.13
0.3667,0.0586,-0.1504,-48.293,-8.78,-8.902,0.4006,100765.5
0.3091,0.0254,-0.6963,-68.902,-25.61,-6.341,0.7622,100764.91
0.2979,-0.0176,-0.252,-2.805,27.012,-10.976,0.3905,100764.84
0.8101,0.0244,0.5332,15.61,48.841,-33.72,0.9701,100765.76
1.3428,0.0298,-0.7539,-73.841,4.268,-44.878,1.5402,100765.73
1.5732,0.0415,-0.998,19.817,12.561,-30.427,1.8636,100765.31
1.0957,0.2451,0.4751,182.683,17.317,-8.72,1.2192,100765.61
1.7124,-0.0605,0.4082,96.707,-19.024,-58.841,1.7614,100766.48
2.0483,-0.2798,-0.0522,22.866,-22.134,-40.549,2.068,100766.75
0.8076,-0.123,0.3281,40.488,31.829,31.585,0.8804,100766.84
0.2749,-0.1401,-0.2305,-37.927,2.317,37.195,0.3851,100766.4
0.207,-0.105,-0.5195,-44.451,-33.232,32.927,0.569,100766.54
0.6055,-0.1338,-0.5669,-31.585,-27.561,25.732,0.8402,100766.19
1.0894,-0.2549,-0.4683,-18.598,12.134,31.829,1.2128,100766.16
1.4307,-0.4683,0.4136,19.39,31.463,33.78,1.5611,100766.4
1.2598,-0.4048,0.3228,-63.841,12.012,31.098,1.362,100766.2
1.3569,-0.2153,-0.2437,-104.024,-2.683,-2.561,1.3954,100766.43
1.5249,-0.2456,-0.4712,-77.073,-5.122,-15.732,1.6148,100766.62
0.5337,-0.0308,-0.3423,-38.78,17.561,16.159,0.6348,100766.36
0.0991,0.1704,-0.3384,-25.183,-14.085,11.646,0.3916,100766.43
0.377,0.1025,-0.4556,-23.659,-25.793,-7.561,0.6001,100766.0
0.6821,0.022,0.0054,22.805,11.829,-9.268,0.6825,100765.91
1.188,0.0869,0.4585,28.902,30.0,-2.866,1.2764,100765.34
1.2515,-0.3022,-0.7153,-13.537,-22.744,-8.171,1.4728,100765.19
1.8672,-0.1455,0.5049,142.5,22.683,-26.037,1.9397,100764.92
1.9097,-0.21,0.6602,99.085,-8.841,-33.659,2.0314,100764.84
1.6982,-0.2642,-0.8589,-24.878,-76.585,-17.5,1.9213,100764.55
0.2979,-0.0664,-1.3643,35.122,-20.915,47.683,1.398,100764.73
-0.1826,0.0923,-0.1006,152.439,45.732,35.671,0.228,100765.21
0.2554,-0.0752,0.5591,75.854,2.134,15.244,0.6192,100765.81
0.3071,-0.2798,0.0811,-48.476,-21.585,28.11,0.4233,100765.91
1.1587,-0.3286,0.1128,-80.061,-51.707,31.829,1.2097,100765.01
0.998,-0.4453,-0.542,-110.61,-42.378,42.378,1.2199,100764.68
1.2148,-0.5967,-0.9824,-55.854,-30.0,6.951,1.6724,100764.46
1.6929,-0.3496,0.481,78.232,70.671,-37.744,1.7943,100764.73
1.6216,-0.252,0.2783,-6.524,13.171,-27.744,1.6645,100765.6
0.5083,-0.0938,-0.5596,-59.939,-1.829,12.744,0.7618,100765.48
0.1011,0.1953,0.335,5.0,14.451,-1.341,0.4007,100765.41
0.3359,0.0029,-0.7231,-83.11,-24.939,-27.805,0.7974,100765.86
1.0088,-0.1113,-0.4731,9.268,25.061,-21.951,1.1198,100765.95
1.2041,0.2266,0.3916,66.524,37.5,13.72,1.2863,100766.38
1.4351,-0.2441,-1.4336,-43.354,-57.5,2.378,2.0431,100765.74
1.4717,0.0439,0.1733,192.439,34.329,18.049,1.4825,100766.01
0.272,0.1489,1.2329,206.098,29.878,2.805,1.2713,100766.4
2.0127,-0.3286,-0.7388,-61.098,-85.732,-112.134,2.169,100765.88
1.1753,-0.3369,-1.0708,6.22,24.939,-31.098,1.6253,100765.58
0.2676,-0.2671,0.1929,124.573,32.012,19.207,0.4244,100764.74
0.5156,-0.3711,0.1958,20.732,-41.951,21.524,0.6648,100765.35
0.5078,-0.3892,-0.3579,-65.366,-44.329,46.951,0.7331,100765.94
1.0474,-0.3462,-0.3198,-61.768,-13.902,51.585,1.1485,100766.14
1.0234,-0.3979,-0.2031,-46.28,-7.744,48.659,1.1167,100765.54
1.0708,-0.356,-0.2788,-52.317,-0.793,26.89,1.1623,100767.07
1.479,-0.1343,0.3242,-25.732,53.537,-22.866,1.5201,100766.72
1.3008,-0.084,-0.2188,-96.524,-3.963,-35.976,1.3217,100767.09
0.9673,-0.1543,-0.6206,-92.805,6.768,-21.463,1.1596,100767.02
0.6108,-0.0957,-0.292,-18.963,21.341,3.476,0.6838,100766.95
0.3857,-0.0146,-0.2046,-1.098,-1.037,19.939,0.4369,100766.89
0.8154,0.0044,-0.0781,4.085,1.768,16.951,0.8192,100767.2
1.1777,0.0742,-0.5425,-16.159,-29.329,20.854,1.2988,100766.59
1.0049,0.0327,-0.8604,33.232,-4.573,7.317,1.3233,100765.65
1.251,0.1523,0.2837,139.878,12.622,-34.085,1.2918,100765.55
1.752,-0.1455,0.4312,92.805,-21.89,-61.829,1.8101,100766.72
1.4854,-0.2812,-0.1943,10.549,-9.268,-33.659,1.5242,100766.51
0.5532,-0.2007,-0.4692,1.768,38.293,11.829,0.7527,100765.84
0.3257,-0.2593,-0.4248,16.037,19.268,15.183,0.5948,100766.56
0.5884,-0.3042,-0.0269,15.671,1.707,10.915,0.6629,100766.76
1.083,-0.3618,0.064,-42.134,8.293,23.963,1.1436,100766.53
0.8931,-0.3135,-0.3784,-82.744,9.817,46.585,1.0193,100766.98
1.1421,-0.3647,-0.2568,-42.927,17.5,20.976,1.2261,100767.31
0.9658,-0.292,0.0562,-10.915,34.817,1.951,1.0106,100768.28
1.3218,-0.1396,0.5845,-8.537,48.598,-47.134,1.452,100767.91
1.2051,-0.145,-0.4976,-94.329,-1.341,-45.305,1.3118,100766.88
0.5425,-0.0718,-0.4438,-29.024,8.78,-17.561,0.7046,100767.73
0.3516,0.0176,0.0415,6.037,-20.671,-10.0,0.3544,100767.02
0.2588,-0.0879,-0.5513,-32.317,-22.439,-18.293,0.6153,100766.98
1.1733,-0.0752,0.1235,31.646,3.232,-18.415,1.1822,100767.3
1.0542,0.188,-0.0825,5.488,-0.427,17.134,1.074,100766.82
1.7485,-0.0967,-1.2539,10.244,-53.963,-12.073,2.1538,100766.59
1.3779,0.2056,-0.0181,162.439,-0.854,0.671,1.3933,100767.0
1.647,-0.127,0.543,140.793,-15.244,-43.476,1.7388,100766.71
1.564,-0.291,-0.0337,34.573,-32.073,-33.537,1.5912,100767.0
0.5112,-0.1201,-0.188,6.768,0.854,16.037,0.5578,100767.19
0.1978,-0.1006,-0.3467,-14.207,-9.268,18.598,0.4116,100767.71
0.2612,-0.1562,-0.1084,-20.244,2.012,11.402,0.3231,100768.12
0.5186,-0.2661,-0.1377,-48.11,-11.463,23.11,0.5989,100767.8
1.1943,-0.334,0.0547,-48.841,-0.183,38.293,1.2414,100767.92
1.3774,-0.3682,-0.0093,-64.634,11.463,42.195,1.4258,100767.77
1.4048,-0.4463,-0.7217,-71.829,7.195,19.268,1.6412,100767.29
1.6753,-0.3018,0.0229,22.439,35.549,-12.256,1.7024,100767.55
0.7251,-0.1182,-0.4551,-55.549,20.549,7.561,0.8642,100767.62
0.4438,0.1299,0.2607,-6.89,51.646,5.366,0.5309,100767.06
0.064,0.249,-0.2314,-68.72,8.537,13.902,0.3459,100767.51
0.4404,0.1626,-0.479,-58.902,20.61,0.732,0.6707,100767.23
0.6021,0.1167,-0.1602,-13.476,47.134,-4.085,0.6338,100767.13
1.3174,-0.063,-0.8638,-7.683,-35.549,-29.695,1.5766,100767.81
2.1445,-0.2632,0.2163,128.11,18.902,-35.061,2.1714,100767.94
1.2017,-0.0591,1.0444,150.122,30.793,-20.976,1.5932,100767.92
1.7871,-0.2671,-0.3477,1.341,-50.61,-68.72,1.8401,100768.27
1.0283,-0.1318,-0.9697,38.902,-18.72,-10.366,1.4196,100767.44
0.0698,0.0127,-0.4355,112.744,14.573,22.134,0.4413,100767.55
0.5649,-0.1743,-0.0854,74.024,-23.232,0.183,0.5974,100767.28
0.6528,-0.27,0.4004,30.976,12.866,22.256,0.812,100767.3
0.8315,-0.1973,0.6592,-40.915,2.256,53.963,1.0793,100766.96
1.2705,-0.3096,-0.1929,-124.207,-36.951,53.902,1.3218,100767.3
1.8418,-0.4263,-0.2549,-74.024,-12.195,40.0,1.9076,100766.45
1.3159,-0.1836,-0.0654,-37.988,27.317,40.549,1.3303,100766.21
1.3672,-0.1738,-0.043,-57.317,-0.122,-9.146,1.3789,100766.99
1.022,-0.2222,-0.6841,-89.085,-67.927,-9.878,1.2497,100766.48
0.356,0.0161,0.0078,-21.402,-16.524,-7.195,0.3564,100765.49
0.0942,0.1294,-0.2217,-54.634,-2.195,-26.341,0.2734,100765.11
0.2603,0.0093,-0.7515,-31.098,13.598,-38.476,0.7953,100764.7
0.4443,0.1772,0.6455,93.293,64.756,-39.024,0.8034,100764.77
1.3062,0.0122,-0.1538,-17.134,-58.78,-26.829,1.3152,100764.32
1.3726,-0.0684,-1.1714,0.0,-47.927,9.573,1.8058,100764.84
1.3643,0.104,0.6323,160.549,54.756,0.061,1.5073,100765.59
1.6997,-0.1606,-0.4917,19.085,-2.927,-27.744,1.7767,100767.09
0.3853,-0.0796,-0.2866,44.329,29.268,8.598,0.4867,100767.91
0.2441,-0.1646,-0.1221,30.427,-21.22,0.732,0.3187,100768.02
0.167,-0.1318,0.0347,8.049,-43.232,-0.854,0.2156,100768.36
0.7251,-0.2251,-0.3579,-44.268,-32.683,-12.134,0.8394,100768.12
1.3765,-0.3027,-0.249,-26.89,21.89,17.744,1.4312,100768.08
1.2065,-0.2759,-0.3447,-23.537,10.549,58.11,1.2848,100768.63
1.269,-0.3594,-0.0825,-9.573,37.805,36.402,1.3215,100768.32
1.397,-0.2046,0.332,-12.805,56.707,-7.439,1.4504,100769.06
1.6831,-0.062,-0.1353,-79.024,-3.659,-40.549,1.6897,100768.66
1.0566,-0.0137,-0.8643,-101.341,-30.793,-1.463,1.3651,100767.73
0.3652,0.1558,-0.2588,-26.829,5.427,22.317,0.474,100767.41
0.0674,0.1079,-0.6021,-35.915,-29.573,21.463,0.6153,100766.94
0.3389,0.1426,0.0161,36.585,19.573,-4.634,0.368,100766.82
1.1729,0.1675,0.2754,17.744,-11.22,-25.915,1.2163,100766.48
1.1177,-0.1387,-1.3408,-38.415,-44.207,-14.512,1.7511,100765.25
1.2305,0.1084,0.0557,157.073,38.171,-26.341,1.2365,100765.31
1.6675,0.1567,1.4243,164.634,4.695,-35.61,2.1986,100765.98
1.8125,-0.0327,-0.0371,-33.659,-40.0,-32.805,1.8132,100766.59
0.9736,-0.0317,-0.9585,-63.72,-18.963,7.622,1.3666,100767.55
0.2007,-0.1138,-0.9224,9.512,3.78,28.78,0.9508,100767.39
0.2305,-0.1177,-0.0767,71.341,42.317,15.854,0.2699,100766.9
0.5459,-0.1411,0.561,24.695,49.268,15.0,0.7954,100767.41
0.8433,-0.1831,-0.27,-98.841,-30.488,36.098,0.9042,100767.54
1.3096,-0.3203,-0.6895,-83.476,-23.598,37.378,1.5142,100766.77
1.4604,-0.4736,-0.3325,-3.841,22.561,42.561,1.5709,100767.3
1.2534,-0.1987,0.3701,36.646,73.171,30.122,1.3219,100767.86
1.4204,-0.043,0.3823,-30.549,19.817,-15.671,1.4716,100767.64
1.0303,-0.0288,-0.6899,-117.683,-42.378,-19.939,1.2403,100767.73
0.7627,-0.0225,-0.5869,-45.061,-3.049,-17.805,0.9626,100768.41
0.4897,-0.042,-0.4458,8.293,18.232,-0.427,0.6636,100768.66
0.248,0.0527,-0.0459,50.305,26.524,18.659,0.2577,100768.49
0.7178,0.1484,0.6431,52.134,21.89,9.573,0.9751,100768.5
0.7891,-0.0137,-0.5679,-43.902,-48.537,14.512,0.9723,100768.48
1.4243,-0.1479,-0.665,32.683,-32.378,-18.232,1.5789,100768.46
1.8506,0.0171,0.5552,117.195,10.305,-30.366,1.9321,100768.2
1.7188,-0.0737,-0.1826,8.415,-46.89,-23.049,1.73,100768.05
1.0317,-0.0464,-1.0542,-9.268,-46.463,-1.037,1.4758,100767.17
0.2944,0.0049,-0.5229,87.683,14.451,7.134,0.6002,100766.75
0.1616,-0.0527,0.3057,118.476,12.5,-0.183,0.3498,100767.7
0.3989,-0.2295,0.2378,34.451,-10.061,-1.22,0.518,100767.51
0.9048,-0.3403,-0.1519,-28.354,-9.634,11.402,0.9785,100766.66
1.4692,-0.3652,-0.3242,-41.646,-9.512,32.561,1.5483,100766.62
1.6538,-0.6401,-0.377,-34.146,12.683,44.146,1.813,100766.73
1.2573,-0.3296,0.0127,-10.732,51.829,36.402,1.2999,100766.55
1.2588,-0.0845,0.0396,-39.878,20.732,-23.049,1.2622,100765.95
1.1558,-0.0786,-0.5303,-86.524,-6.829,-46.768,1.274,100765.61
0.625,-0.0117,-0.2383,-49.817,13.537,-32.378,0.669,100765.84
0.4551,-0.0444,-0.1802,-45.549,2.439,-12.683,0.4915,100766.37
0.165,0.0249,-0.4971,-32.317,-2.439,20.366,0.5243,100766.65
0.3159,0.1924,0.1196,34.024,33.11,8.354,0.3887,100766.75
1.3467,-0.062,0.0513,-5.671,-11.829,-12.5,1.3491,100767.31
1.375,-0.2827,-0.688,4.756,-21.585,6.768,1.5633,100767.46
1.3145,0.0913,0.7808,122.378,10.061,-5.122,1.5316,100768.82
1.4541,0.022,-0.0527,0.122,-41.037,-40.427,1.4552,100768.84
1.5327,-0.0195,-1.0601,-21.159,-45.366,-47.561,1.8637,100768.02
0.9648,0.0171,-0.687,71.646,17.988,-11.341,1.1846,100767.43
0.3242,-0.0269,-0.3291,102.195,29.329,13.293,0.4628,100767.06
0.3462,-0.1621,0.0669,84.695,12.805,14.268,0.3881,100766.69
0.7798,-0.2983,0.2461,19.39,2.805,23.72,0.8704,100766.77
1.1538,-0.2754,-0.0361,-62.439,-29.207,50.854,1.1868,100767.2
1.1201,-0.3047,-0.3315,-82.378,-22.134,61.585,1.2072,100766.43
1.084,-0.439,-0.645,-79.024,-1.768,45.183,1.3356,100766.08
1.0234,-0.2363,-0.0503,-5.305,62.866,5.549,1.0516,100766.56
1.4097,-0.1401,0.2432,-16.89,47.866,-54.634,1.4373,100767.43
1.1191,-0.2471,-0.4995,-59.695,16.402,-51.707,1.2502,100767.7
0.583,-0.1138,0.3013,10.671,30.061,-33.354,0.666,100767.41
0.6035,-0.1216,0.0938,-39.939,-24.512,-29.512,0.6227,100767.3
0.7627,-0.2046,-0.7876,-52.622,-16.28,-1.463,1.1153,100767.38
0.4443,0.0659,0.0811,55.122,26.524,29.817,0.4565,100766.94
0.9761,0.167,0.1362,20.244,-9.39,3.354,0.9996,100766.96
1.8496,-0.1641,-0.7065,-2.5,-30.183,-16.585,1.9867,100767.23
1.1143,0.1182,0.166,109.146,10.549,12.378,1.1327,100767.3
1.7085,-0.1235,0.248,66.524,-8.049,-35.305,1.7308,100766.98
1.4253,-0.187,-0.8613,7.927,0.366,-21.89,1.6758,100767.98
0.3145,-0.0308,-0.6772,73.72,39.695,11.524,0.7473,100768.27
0.3091,-0.1006,0.0933,96.098,20.061,7.5,0.3382,100768.57
0.6289,-0.2095,0.4443,15.61,-3.171,10.854,0.798,100767.82
0.7329,-0.269,-0.1519,-94.451,-25.793,32.439,0.7954,100767.16
1.144,-0.2407,-0.3271,-101.89,-37.195,50.183,1.214,100768.26
1.2358,-0.3271,-0.186,-69.878,-17.805,48.72,1.2919,100767.34
1.2173,-0.1499,-0.0864,-34.451,32.988,-15.122,1.2295,100766.79
1.5713,-0.2383,-0.3408,-29.207,25.305,-51.524,1.6254,100767.48
1.1592,-0.1836,0.0591,0.61,30.549,-25.244,1.1751,100767.64
0.0259,0.1323,0.0459,-18.598,11.037,9.512,0.1424,100767.5
0.3662,0.1167,-0.1553,-59.146,-32.012,-18.841,0.4145,100767.77
0.6841,-0.0142,-0.5039,-67.927,-26.402,-20.305,0.8498,100768.31
1.0767,0.0,0.1519,-21.585,-8.72,-10.671,1.0873,100767.16
1.2544,-0.0112,-0.3931,-60.61,-59.634,-2.012,1.3146,100766.8
1.4019,-0.166,-0.7168,7.439,-66.037,-11.159,1.5832,100767.13
1.3179,0.0176,0.1489,119.451,-17.988,-14.146,1.3264,100766.88
1.4116,-0.1357,-0.1274,87.256,16.829,-29.329,1.4238,100766.57
1.0791,-0.0737,-0.1533,84.024,40.793,-17.195,1.0924,100766.95
0.3779,0.0288,0.1069,60.549,49.634,3.293,0.3938,100767.12
0.5249,-0.1494,-0.7017,-17.561,-6.402,0.305,0.8889,100766.99
0.436,-0.1045,-0.5771,21.707,21.646,18.78,0.7309,100766.9
0.5918,-0.1265,0.084,30.366,22.927,24.024,0.611,100767.09
1.1699,-0.3091,-0.3081,-36.707,-7.439,28.72,1.2487,100766.75
1.2432,-0.4668,-0.2495,-14.512,16.037,34.756,1.3512,100768.2
1.0576,-0.2642,0.2178,12.317,42.134,16.463,1.1116,100767.95
1.8208,-0.2075,0.5864,-23.293,35.427,-50.793,1.9241,100768.12
1.645,-0.2617,-0.626,-115.061,-10.305,-38.841,1.7794,100768.48
0.519,-0.0298,-0.4443,-33.659,12.073,0.366,0.6839,100768.13
0.1997,0.0684,-0.0425,-2.805,-13.293,-2.439,0.2153,100768.15
0.4204,-0.0635,-0.4146,-34.878,-16.585,-14.268,0.5938,100767.66
0.7422,-0.0845,-0.0435,0.488,20.183,-8.841,0.7482,100768.38
1.2192,0.0195,0.3232,-4.573,10.183,10.732,1.2615,100767.95
1.5552,-0.1113,-0.4751,-33.232,-37.744,21.037,1.6299,100768.12
1.4346,0.1182,-0.188,61.646,-16.098,29.451,1.4517,100768.23
1.1484,0.1025,-0.2446,85.732,-14.329,0.244,1.1787,100768.2
1.5742,-0.0293,-0.3115,82.195,-42.622,-37.805,1.605,100767.92
0.7793,0.0181,-0.1616,69.451,-20.061,-3.232,0.7961,100768.1
0.1543,-0.0864,-0.5503,28.78,-3.902,1.524,0.578,100767.24
0.5566,-0.2905,0.0493,55.671,3.72,-10.976,0.6298,100767.96
0.8081,-0.3271,0.5435,4.268,8.476,15.0,1.0273,100768.12
0.7764,-0.3149,0.0293,-92.927,-23.354,47.805,0.8383,100767.76
0.7603,-0.2524,-0.1592,-106.463,-32.5,47.622,0.8167,100767.83
1.2217,-0.3433,-0.3638,-109.268,-16.646,24.207,1.3201,100767.05
1.4482,-0.3062,-0.4458,-61.28,49.573,6.463,1.5459,100766.86
1.7559,-0.0918,0.4062,-8.049,66.22,-25.915,1.8046,100767.05
1.4634,-0.0791,-0.2847,-99.451,24.39,-27.805,1.4929,100766.98
0.8735,-0.0586,-0.7065,-84.207,21.829,-2.927,1.125,100766.77
0.3452,0.0234,-0.6216,-16.037,30.488,13.11,0.7114,100767.36
0.1133,0.0938,-0.0957,38.293,44.756,12.683,0.1754,100767.82
0.4883,0.1484,0.3945,31.037,17.378,-2.561,0.6451,100769.0
0.8008,0.1929,-0.4136,-36.402,-55.854,-4.39,0.9217,100768.79
1.4434,0.0195,-1.0732,23.354,-24.451,-21.646,1.7988,100767.52
1.5361,0.2881,0.9688,231.159,60.61,-7.5,1.8388,100768.17
1.9023,-0.0254,0.9702,99.878,-34.634,-33.354,2.1356,100768.27
1.6079,-0.2275,-1.124,-85.61,-56.89,-27.988,1.975,100768.48
0.936,-0.0864,-0.938,56.707,8.354,-3.902,1.328,100767.92
0.4927,-0.1123,-0.1172,140.0,17.073,20.915,0.5187,100767.73
0.0752,-0.0703,0.7734,121.402,26.89,30.427,0.7803,100768.57
0.4688,-0.1694,0.2065,-29.268,-39.878,20.427,0.5395,100768.59
1.0527,-0.2949,-0.6802,-98.78,-59.878,33.476,1.2876,100769.59
0.7539,-0.1099,-0.5332,-30.488,-31.768,63.841,0.9299,100768.24
0.9302,-0.2114,-0.3154,13.841,-25.61,35.366,1.0047,100767.98
1.1997,-0.3579,-0.1201,43.476,25.732,-3.476,1.2577,100767.29
1.5332,-0.2158,0.9009,43.415,71.951,-48.171,1.7913,100767.86
1.6343,-0.2114,0.0259,-102.988,1.28,-67.561,1.6481,100767.69
1.2261,-0.3066,-0.8086,-111.707,2.927,-39.146,1.5004,100768.3
0.3374,-0.0205,-0.0264,-23.354,51.463,-1.22,0.3391,100768.87
0.0103,0.1187,-0.0635,-52.439,17.378,-8.415,0.135,100768.81
0.6362,0.0249,-0.3638,-54.634,-17.927,-22.744,0.7333,100768.52
0.937,0.0747,-0.3306,-6.28,-9.939,1.768,0.9964,100768.2
1.1836,0.0908,-0.6582,37.439,-32.256,5.0,1.3573,100767.8
1.5513,0.2017,0.0845,135.488,-23.476,3.171,1.5666,100767.52
1.3677,0.1611,0.2773,122.622,3.476,-13.659,1.4048,100768.66
1.915,-0.208,-0.3945,49.695,-27.378,-45.671,1.9663,100768.77
1.3521,-0.252,-0.356,50.427,6.768,-4.085,1.4206,100767.87
0.5005,-0.2065,-0.3452,36.89,12.622,26.463,0.6421,100766.95
0.1899,-0.1245,-0.0176,20.488,-12.439,27.378,0.2278,100766.77
0.2339,-0.1309,0.1943,-31.098,-29.573,19.207,0.331,100766.62
0.6177,-0.2349,-0.0874,-91.524,-47.195,18.78,0.6666,100766.16
1.1006,-0.2246,-0.5762,-104.268,-44.939,34.024,1.2624,100766.77
1.2363,-0.3647,-0.6465,-36.585,13.476,37.317,1.442,100767.62
1.0483,-0.2681,0.1987,54.817,92.134,26.829,1.1002,100768.12
1.3647,-0.1094,0.9937,34.207,90.0,-25.671,1.6917,100767.88
1.5146,-0.1396,-0.25,-120.61,-2.317,-52.378,1.5415,100767.59
1.2119,-0.1372,-0.6499,-88.476,-3.049,-28.78,1.382,100767.62
0.6841,0.0234,-0.1279,-8.78,36.341,6.28,0.6963,100767.02
0.2461,0.0996,-0.228,-25.488,27.805,17.012,0.35,100767.93
0.3252,0.2446,-0.1553,-24.817,2.5,10.732,0.4356,100768.11
0.7134,0.311,-0.2559,-30.305,-34.939,-1.037,0.8192,100768.62
1.4395,0.0786,-1.106,-9.451,-67.622,-25.915,1.817,100768.5
1.8774,0.1421,-0.2549,143.537,5.183,-20.183,1.9,100768.19
1.5933,0.0361,0.689,175.488,45.061,-12.195,1.7362,100768.05
1.6538,-0.2349,0.1792,49.695,-29.207,-20.244,1.68,100767.72
0.9976,-0.2842,-0.6689,-13.171,-44.085,16.402,1.2342,100766.84
0.2183,-0.1387,-0.3223,46.463,2.439,34.146,0.4132,100767.05
0.0845,-0.1265,0.1382,48.415,1.707,22.866,0.2055,100767.57
0.4141,-0.2256,0.1519,-12.134,-6.89,13.598,0.4954,100768.11
0.6362,-0.2466,0.0205,-59.268,-7.256,21.768,0.6827,100768.12
1.1299,-0.2114,0.0205,-84.146,-18.11,16.098,1.1497,100768.14
1.2266,-0.3911,-0.5254,-92.988,-7.561,12.195,1.3905,100767.77
1.2046,-0.2119,0.1797,-10.732,61.951,-5.549,1.2362,100768.23
1.7007,-0.0942,0.5225,-48.11,52.134,-49.817,1.7816,100768.59
1.3184,-0.0532,-0.5713,-131.402,12.805,-46.341,1.4378,100768.61
1.021,-0.04,-0.6255,-68.78,12.622,-23.598,1.198,100769.23
0.6133,0.0786,-0.4209,-11.098,19.817,3.537,0.748,100768.73
0.3936,0.0981,-0.2866,13.232,31.037,8.11,0.4967,100768.45
0.374,0.127,0.0034,25.061,20.61,7.744,0.395,100768.27
0.9741,0.1885,-0.0444,-1.646,-17.805,-13.598,0.9932,100767.62
1.2461,0.0737,-0.7656,-7.317,-59.085,-28.049,1.4644,100767.99
1.5923,0.1904,-0.0845,98.415,2.561,-28.78,1.6059,100767.18
1.5571,0.0747,0.3179,118.659,24.207,-20.915,1.591,100767.18
1.2827,0.0801,0.4883,66.402,24.634,-15.793,1.3748,100766.83
0.9438,-0.0698,-0.3433,-22.073,-26.524,7.622,1.0068,100766.54
0.4053,-0.0615,-0.0024,63.11,12.378,43.902,0.4099,100767.2
0.5264,-0.1777,-0.188,16.768,-7.5,47.561,0.5865,100767.19
0.896,-0.2129,-0.0552,-4.207,-18.171,45.183,0.9226,100767.32
0.9468,-0.249,-0.0825,-33.171,-20.976,32.683,0.9825,100767.41
1.2153,-0.3521,-0.3721,-46.524,-22.317,0.793,1.3189,100766.86
1.542,-0.2432,-0.0879,-11.646,34.817,-14.024,1.5635,100766.34
1.5791,-0.1865,0.3374,-14.512,61.829,-26.524,1.6255,100766.66
1.1191,-0.0791,0.1494,-62.561,14.878,-20.671,1.1318,100766.56
0.6294,0.0479,0.2051,-75.122,6.037,-7.439,0.6637,100766.97
0.1328,0.1294,-0.2212,-102.927,-41.28,-0.671,0.2886,100767.41
0.4688,0.041,-0.7842,-87.561,-47.5,-3.598,0.9145,100768.59
0.894,0.0552,-0.3374,14.817,19.878,12.866,0.9572,100768.48
1.1377,0.1392,-0.1577,33.841,-19.39,23.598,1.157,100767.93
1.6592,-0.1182,-0.4775,43.72,-25.488,7.744,1.7306,100767.12
1.1362,0.1401,0.4546,102.195,-7.134,13.659,1.2318,100767.38
1.7632,-0.0884,-0.7666,-5.671,-52.439,-39.695,1.9247,100767.58
1.6162,-0.0283,-0.5444,64.024,37.866,-29.39,1.7057,100767.84
0.5884,0.1001,0.3311,92.378,80.488,12.012,0.6825,100767.92
0.2031,-0.0513,-0.0732,-4.085,13.232,13.841,0.2219,100767.98
0.541,-0.2559,-0.2998,-30.488,-12.561,10.793,0.6694,100767.83
0.4541,-0.2007,0.2588,-13.415,31.402,26.585,0.5599,100768.27
0.9473,-0.1299,0.355,-80.0,-38.78,19.451,1.0199,100768.96
1.479,-0.1997,-0.2705,-141.341,-46.22,21.768,1.5167,100768.77
1.064,-0.1797,-0.4058,-73.415,10.915,31.463,1.1528,100768.64
1.4712,-0.1357,0.188,-10.915,40.793,-20.183,1.4894,100768.52
1.748,-0.2231,-0.1938,-71.89,7.134,-38.537,1.7729,100768.67
0.9668,-0.1616,-0.7373,-74.146,-16.829,-0.793,1.2266,100768.67
0.416,0.0479,-0.3569,10.549,3.171,21.037,0.5502,100768.4
0.1562,0.0415,-0.1733,34.146,17.683,16.402,0.237,100768.23
0.4292,0.0322,-0.1665,36.159,22.5,9.512,0.4615,100767.73
0.5786,0.1602,0.2568,52.378,40.854,7.134,0.653,100767.62
1.0361,0.0518,-0.5596,-19.024,-65.61,-13.293,1.1787,100766.77
1.752,-0.0898,-0.6855,51.89,-42.012,-28.659,1.8835,100767.12
1.7065,0.0215,0.6797,158.476,26.159,-16.463,1.837,100768.37
1.5537,-0.0781,0.1484,38.232,-10.915,-25.427,1.5627,100767.95
1.0767,-0.0293,-0.0977,-5.671,-5.732,-24.451,1.0815,100768.01
0.3433,-0.1562,0.0522,51.707,7.134,23.232,0.3808,100767.53
0.7271,-0.2344,0.1699,3.354,-24.39,16.28,0.7826,100767.1
1.4097,-0.189,-0.0557,-56.341,-58.537,18.293,1.4234,100768.0
1.5298,-0.3652,-0.3833,-66.585,-34.512,29.512,1.6188,100768.42
1.2637,-0.3013,-0.2544,-20.366,21.768,27.683,1.3238,100768.12
1.4585,-0.2383,0.1777,-4.817,56.707,-8.537,1.4885,100768.75
1.5825,-0.2437,-0.1597,-58.476,35.061,-14.512,1.6091,100768.6
0.7271,-0.1055,-0.4048,-60.61,32.988,23.963,0.8388,100768.12
-0.1689,0.0269,-0.0552,-28.78,22.317,33.171,0.1797,100767.89
0.2837,0.0146,-0.1089,-45.061,-12.317,-5.854,0.3042,100768.23
0.5605,0.0791,-0.1548,-33.11,-1.159,-5.488,0.5869,100768.34
0.9092,0.1646,-0.1885,-22.012,-20.305,-3.232,0.943,100768.06
1.6724,0.0044,-0.4775,7.073,-43.72,-6.89,1.7392,100768.59
1.646,-0.0239,-0.0796,88.72,15.305,11.829,1.6481,100768.25
1.4478,-0.1172,-0.3242,95.0,-4.695,-5.732,1.4882,100768.13
1.501,-0.0649,-0.0698,117.012,7.256,-25.61,1.504,100768.38
0.8804,-0.0225,0.1108,108.72,27.744,-7.927,0.8876,100767.47
0.5942,-0.1519,-0.1821,58.476,-5.0,0.0,0.6398,100767.55
0.2402,-0.189,-0.2402,50.305,-1.463,14.817,0.3888,100767.47
0.1631,-0.1938,0.3481,48.11,-5.671,16.646,0.4306,100767.41
0.7729,-0.394,0.0947,-45.976,-36.341,10.427,0.8728,100766.99
1.0664,-0.4229,-0.2109,-85.671,-33.78,36.402,1.1664,100767.04
1.2476,-0.5132,-0.3696,-79.939,-36.707,38.659,1.3987,100766.96
1.8125,-0.3091,0.5776,5.793,55.366,-30.122,1.9273,100768.23
1.4307,-0.168,-0.0825,-88.841,35.671,-34.512,1.4429,100768.33
0.9043,-0.0557,-0.2158,-86.28,34.451,-29.695,0.9314,100768.67
0.4683,0.0308,-0.6221,-75.61,4.329,-9.634,0.7792,100768.8
0.1968,0.063,-0.4888,-23.78,15.549,0.427,0.5306,100768.66
0.6284,0.1011,-0.0791,3.841,5.793,-3.78,0.6414,100767.95
1.1558,0.0752,-0.1392,-4.939,2.988,4.573,1.1665,100767.39
1.3228,-0.1167,-0.6724,9.817,-29.634,9.939,1.4884,100766.62
1.3315,-0.0439,0.2217,117.805,13.415,4.756,1.3506,100767.15
1.2896,-0.063,0.25,93.049,-23.598,-18.841,1.3151,100766.66
2.083,-0.2437,-0.6641,40.793,-71.768,-44.451,2.1998,100767.17
0.9844,0.0566,-0.0249,111.829,20.793,12.5,0.9863,100767.55
-0.0742,0.1187,0.0571,70.122,2.073,28.415,0.1512,100767.35
0.0483,-0.0327,-0.0918,9.939,-46.098,-6.646,0.1088,100766.48
0.4824,-0.1753,0.0532,-26.159,-21.89,-28.415,0.516,100767.77
1.0249,-0.3438,-0.2017,-75.427,-27.317,-18.78,1.0997,100766.65
1.2397,-0.3804,-0.5278,-87.683,-40.61,17.744,1.4001,100767.05
1.3931,-0.4624,-0.3823,-49.939,-35.122,34.573,1.5168,100767.48
0.9858,-0.4233,-0.2759,-17.866,17.927,30.488,1.1078,100768.16
1.6113,-0.2939,0.3779,-5.122,42.561,-32.561,1.681,100768.79
1.7227,-0.2148,-0.1899,-86.341,1.098,-33.354,1.7464,100769.18
0.9004,-0.0986,-0.4526,-74.024,22.012,3.902,1.0126,100768.32
0.4253,-0.0103,-0.3022,-36.646,15.122,22.683,0.5219,100768.2
0.1104,0.1299,-0.2559,-9.085,2.012,34.695,0.3074,100766.84
1.2363,0.0264,-0.502,7.927,-5.854,3.841,1.3346,100767.16
1.2178,-0.1323,-0.9053,46.768,-15.244,19.39,1.5232,100766.57
1.3286,0.0215,0.3711,165.488,-12.134,4.207,1.3796,100766.99
1.7808,-0.1851,0.4688,98.415,-29.207,-30.976,1.8507,100767.56
1.6353,-0.231,-0.7363,13.841,-36.341,-22.805,1.8082,100767.24
0.8301,-0.0024,-0.1187,71.768,13.78,-2.866,0.8385,100767.23
0.3882,-0.0522,-0.2446,33.476,5.244,-1.28,0.4618,100767.37
0.0439,-0.0293,-0.1411,34.817,1.768,4.268,0.1507,100766.98
0.1763,-0.0039,0.2739,13.902,3.841,-14.085,0.3258,100767.09
0.8057,-0.252,-0.3228,-65.915,-10.61,-24.695,0.9037,100766.77
1.4639,-0.3462,-0.3979,-63.476,-10.427,4.207,1.556,100766.89
1.4292,-0.4629,-0.354,-43.659,7.134,35.488,1.5434,100766.39
1.2695,-0.4614,-0.2588,-0.854,21.585,45.305,1.3754,100766.84
0.9844,-0.1074,0.9556,53.232,67.5,8.902,1.3761,100767.32
1.77,-0.2593,-0.0747,-104.817,13.11,-62.073,1.7905,100767.78
1.3257,-0.3325,-1.1401,-101.22,4.024,-30.488,1.7799,100768.26
0.251,0.0366,0.1299,49.695,48.78,17.866,0.285,100768.13
-0.0649,0.2065,0.0186,-14.39,-15.732,10.0,0.2173,100768.05
0.6099,-0.0332,-0.6587,-50.488,-23.659,-13.476,0.8983,100768.22
1.3247,-0.0762,-0.4307,-10.976,-6.22,-1.707,1.395,100768.48
1.4653,-0.0342,-0.1904,38.537,-16.768,-8.11,1.478,100767.57
1.5259,-0.042,-0.1704,49.024,-32.561,-22.134,1.5359,100766.88
1.8188,-0.1133,-0.3599,36.341,-39.817,-30.061,1.8576,100767.72
1.0044,-0.0229,-0.4824,41.341,-1.159,9.939,1.1145,100767.97
0.2383,0.0215,-0.2466,60.732,9.695,31.037,0.3436,100767.43
-0.0132,-0.0742,0.1592,54.512,-23.72,22.744,0.1761,100767.02
0.415,-0.2295,0.1387,-8.049,-45.122,9.085,0.4941,100766.7
0.9072,-0.2861,-0.3164,-70.488,5.976,13.78,1.0025,100766.11
1.2905,-0.3135,-0.207,-44.756,5.488,22.744,1.3441,100766.15
1.5039,-0.4609,-0.4873,-32.439,17.5,24.451,1.6467,100766.57
1.3037,-0.2666,-0.0127,26.28,86.463,10.671,1.3308,100766.74
1.4429,-0.168,0.269,15.305,35.122,-18.72,1.4773,100766.14
0.9829,-0.1655,-0.269,-38.78,38.598,-18.72,1.0324,100766.45
0.4868,-0.0659,-0.1416,-16.585,50.976,-12.683,0.5113,100767.38
0.2437,-0.0122,-0.0684,-18.232,22.805,-14.207,0.2534,100766.97
0.3262,-0.0518,-0.1436,-34.695,3.659,-23.293,0.3601,100768.64
0.7905,-0.0522,-0.1084,-40.305,13.232,-23.293,0.7996,100768.3
1.019,0.0181,-0.6309,-30.305,-12.805,-11.22,1.1986,100768.16
1.79,-0.0391,-0.3799,43.902,-33.537,-19.695,1.8303,100767.91
1.8589,0.1841,0.1182,94.939,15.793,-13.293,1.8717,100767.04
1.8789,0.0928,-0.0425,93.72,19.024,-8.598,1.8817,100766.61
0.9561,0.1362,0.3379,102.622,36.22,23.293,1.0231,100767.02
0.4683,-0.0293,-0.229,27.317,-28.659,15.61,0.5221,100767.2
0.3784,-0.1597,-0.5103,19.634,-31.524,4.512,0.655,100766.97
0.4072,-0.2417,0.1323,43.841,13.293,6.341,0.4917,100767.16
0.6807,-0.2983,0.3701,-6.22,3.293,12.561,0.8302,100767.8
1.147,-0.2969,-0.1582,-82.927,-48.232,28.415,1.1953,100767.93
1.1621,-0.4038,-0.502,-66.159,-42.378,39.512,1.3287,100768.24
0.8818,-0.3467,-0.0317,9.756,38.598,18.902,0.9481,100768.39
1.8149,-0.3052,0.2993,-0.122,42.744,-48.78,1.8646,100767.98
1.8726,-0.2896,-0.3662,-48.598,36.524,-40.183,1.9299,100767.81
0.8862,-0.0166,-0.1558,7.5,54.207,0.61,0.9,100766.93
0.3545,0.0674,0.0298,15.793,26.463,7.134,0.3621,100767.62
0.2163,0.0503,0.0688,-12.622,15.061,-3.049,0.2325,100767.55
0.2827,0.1045,-0.0005,-41.28,-11.463,-9.146,0.3014,100767.46
1.1729,-0.0024,0.0654,-60.183,-47.439,-15.366,1.1747,100767.54
1.5342,-0.0913,-0.6196,-56.707,-62.927,11.341,1.6571,100766.48
1.231,-0.063,-0.1216,59.085,-10.976,27.866,1.2385,100766.45
1.25,0.0381,0.3438,86.89,-15.183,-4.268,1.297,100766.05
1.5698,-0.0674,-0.1831,57.073,-32.561,-41.402,1.5819,100765.49
1.2642,0.0801,0.0693,86.524,7.683,-10.061,1.2686,100765.82
0.3994,-0.0317,-0.1875,47.073,20.183,13.415,0.4424,100766.67
0.4741,-0.2124,-0.4585,21.28,3.293,-0.183,0.6929,100766.95
0.4717,-0.2051,0.0034,30.61,23.598,10.0,0.5143,100766.66
0.8335,-0.2905,0.1704,-30.915,-5.183,17.927,0.899,100766.2
0.9824,-0.291,-0.1963,-91.951,-20.671,40.61,1.0433,100766.09
0.8027,-0.2925,-0.2832,-77.805,-12.012,32.744,0.9001,100766.76
1.2422,-0.3076,-0.23,-41.829,5.732,-11.585,1.3002,100766.13
1.7329,-0.1616,0.7812,7.012,63.476,-55.732,1.9077,100766.3
1.7583,-0.1743,0.1738,-91.22,8.293,-60.915,1.7755,100766.91
1.1304,-0.1045,-0.5693,-104.634,-21.22,-23.902,1.27,100767.13
0.4565,-0.0093,-0.8408,-35.976,-41.22,6.585,0.9568,100766.42
0.0874,0.1211,-0.0874,42.744,18.476,8.354,0.173,100766.76
0.1274,0.1235,0.062,24.817,10.244,-9.085,0.188,100767.02
1.0952,0.0933,0.1289,-6.829,-45.732,-24.695,1.1067,100767.45
1.6782,0.0205,-0.751,-38.598,-76.28,-12.927,1.8387,100766.91
1.6714,-0.0776,-0.5063,68.659,18.11,8.963,1.7481,100766.52
1.0957,0.0972,0.5337,131.829,73.232,19.878,1.2226,100766.83
1.6836,-0.1221,-0.0093,47.561,-27.866,-15.061,1.688,100766.82
1.373,-0.1235,0.0332,42.317,-10.244,9.146,1.379,100765.96
0.3374,-0.1113,-0.0659,21.037,23.11,43.171,0.3614,100766.05
0.0835,-0.1426,-0.1685,-4.878,-2.866,39.939,0.236,100766.47
0.3159,-0.1138,0.0151,-21.341,1.341,22.134,0.3361,100768.02
0.6519,-0.2017,0.0972,-61.951,-2.683,12.256,0.6892,100768.08
0.8228,-0.1235,0.0859,-106.22,-10.366,8.841,0.8364,100767.63
1.3682,-0.3193,-0.6475,-139.573,-38.78,-14.512,1.5469,100768.05
1.6484,-0.4121,-0.3882,-51.89,7.561,-12.378,1.7429,100768.1
1.7202,-0.2393,0.7432,0.488,78.72,-25.854,1.8891,100768.24
1.3647,-0.2427,-0.353,-105.732,21.402,-23.841,1.4304,100767.89
0.8667,-0.0742,-0.3105,-51.646,10.549,-0.427,0.9236,100767.48
0.2632,0.1338,-0.0674,-21.159,-0.305,15.183,0.3028,100767.3
0.1836,0.0605,-0.4844,-41.707,-22.256,-5.61,0.5215,100766.91
0.7773,-0.0117,-0.1226,2.866,9.634,-11.89,0.787,100767.62
0.6416,0.1299,-0.0571,4.207,15.488,12.561,0.6571,100768.02
1.2451,-0.064,-0.3433,1.585,-20.305,-27.012,1.2931,100767.48
1.5962,-0.1255,0.4517,61.037,27.012,-24.573,1.6636,100767.43
1.3623,-0.0967,0.3398,14.573,-11.341,-17.317,1.4074,100768.37
1.585,-0.2021,-0.6128,-35.915,-34.695,-25.793,1.7113,100767.73
1.0337,-0.0981,-0.1235,35.915,17.805,7.744,1.0457,100768.0
0.438,-0.0264,0.1958,29.878,20.549,20.122,0.4805,100768.2
0.394,-0.1357,-0.4326,-27.256,-21.341,8.415,0.6007,100768.06
0.5,-0.165,-0.1919,-6.159,-3.537,13.293,0.5604,100768.84
0.7549,-0.1924,0.2866,-22.5,7.256,24.573,0.8301,100768.83
1.147,-0.0435,-0.1929,-98.659,-42.988,34.207,1.1639,100768.16
1.479,-0.3608,-0.8164,-86.829,-34.512,25.183,1.7275,100767.7
1.1875,-0.1206,0.1528,10.915,38.902,15.732,1.2034,100768.8
1.7944,-0.0317,0.6123,-38.354,27.439,-47.134,1.8963,100768.0
1.8237,-0.3062,-1.0718,-133.171,-14.268,-38.537,2.1374,100767.68
0.8496,-0.1001,0.0415,13.415,43.902,11.707,0.8565,100767.95
0.1084,0.02,0.2295,-8.72,21.768,17.622,0.2546,100767.27
0.1313,-0.106,-0.27,-51.951,-6.829,-3.171,0.3184,100767.51
0.4185,-0.0503,-0.0249,-23.963,6.22,-7.195,0.4222,100767.66
0.9731,-0.0571,0.0332,-40.732,10.061,-8.049,0.9754,100767.17
1.3398,-0.1294,-0.3423,-50.61,-9.939,-1.707,1.3889,100766.83
1.4102,-0.1343,0.0918,16.707,22.378,7.439,1.4195,100767.42
1.2778,-0.0088,0.3691,27.012,24.512,-1.159,1.3301,100767.88
1.5264,-0.0913,0.2266,-7.317,19.695,-31.037,1.5458,100767.95
1.2319,-0.0552,0.1353,-37.5,13.963,-19.695,1.2406,100768.02
1.0444,-0.106,-0.4375,-72.439,-22.683,-4.451,1.1373,100768.08
0.7329,-0.1626,-0.7686,-47.622,-12.073,30.793,1.0744,100768.12
0.2603,-0.0962,-0.1016,13.049,19.878,51.159,0.2955,100767.77
0.5552,-0.1968,0.2178,-25.244,4.146,31.159,0.628,100768.62
1.1597,-0.2388,0.2227,-90.061,-15.366,21.829,1.2047,100768.62
1.4526,-0.395,0.0093,-113.841,-22.195,28.902,1.5054,100768.02
1.2798,-0.1479,0.4219,-83.11,47.683,-10.61,1.3556,100768.92
1.5552,-0.2729,-0.4106,-119.695,25.854,-29.085,1.6315,100768.73
0.7324,-0.0229,-0.0146,-41.585,54.695,9.695,0.7329,100767.62
0.1782,0.1606,0.0542,-44.146,14.634,5.915,0.246,100767.29
0.4087,-0.04,-0.6514,-66.951,-29.39,-19.085,0.77,100766.91
0.709,0.0103,-0.1313,0.549,2.134,-10.244,0.7211,100767.97
1.4429,0.0254,-0.0732,-6.341,-17.073,4.573,1.445,100767.68
1.6182,-0.2671,-0.9204,7.439,-27.134,48.902,1.8807,100767.68
0.7178,-0.0176,0.8286,149.329,25.061,69.268,1.0964,100767.34
1.2803,-0.1895,0.833,48.415,-42.988,-6.585,1.5391,100767.69
1.7002,-0.377,-0.4375,-32.683,-55.183,-25.305,1.7956,100767.58
1.2036,-0.0811,0.3965,52.622,26.402,1.22,1.2698,100767.84
0.5415,-0.0449,-0.0107,-12.073,21.341,15.671,0.5435,100767.2
0.2837,-0.146,-0.5112,-23.354,-16.646,22.683,0.6026,100767.56
0.1968,-0.123,0.4258,23.415,20.793,18.72,0.4849,100768.09
0.6411,-0.2188,0.4302,-69.756,1.707,-5.793,0.8025,100767.88
1.3652,-0.4287,-0.2969,-138.659,1.646,-7.988,1.4614,100767.23
1.3008,-0.6011,0.0591,-87.622,15.427,17.622,1.4342,100767.1
0.832,-0.4116,0.1631,-81.22,6.524,25.122,0.9425,100767.36
1.1997,-0.1729,0.6196,-71.524,28.537,-32.5,1.3613,100768.3
1.8213,-0.1396,-0.042,-139.024,-6.768,-75.122,1.8271,100767.8
1.376,-0.1133,-0.439,-110.732,7.439,-43.78,1.4487,100767.89
0.8008,0.0,-0.0947,-48.902,30.671,-11.098,0.8064,100767.71
0.2637,0.0063,-0.2632,-50.671,6.768,6.098,0.3726,100767.8
0.2925,0.0605,0.0059,-33.78,2.927,-1.098,0.2987,100767.78
0.7544,0.0356,0.145,-43.659,-15.61,-7.378,0.769,100767.5
1.2222,-0.104,-0.3306,-43.659,-24.451,-3.598,1.2703,100767.16
1.5376,-0.1909,0.0659,25.732,-12.561,7.134,1.5508,100767.77
1.3223,0.0269,0.1484,37.256,-17.744,13.902,1.3308,100768.1
1.4062,-0.1318,-0.043,28.902,-16.22,-13.11,1.4131,100768.48
1.6938,-0.0742,0.2808,36.28,-14.329,-19.329,1.7186,100768.65
0.9966,-0.0122,-0.3091,-17.012,-13.659,24.634,1.0435,100768.04
0.2837,-0.0298,-0.7139,-10.427,-25.244,48.841,0.7687,100768.19
0.1597,-0.0845,-0.1821,49.085,4.512,40.305,0.2565,100767.3
0.2676,-0.2485,0.1909,34.329,27.805,30.061,0.4121,100766.91
0.6377,-0.2173,0.5332,-27.256,8.171,20.854,0.8592,100767.82
1.2075,-0.3633,-0.062,-114.329,-25.976,-0.366,1.2625,100767.68
1.5386,-0.6694,-0.3271,-80.305,2.073,1.707,1.7095,100766.56
1.2852,-0.3154,0.5229,3.72,64.207,1.89,1.4229,100767.7
1.6558,-0.2021,0.396,-62.073,8.354,-50.732,1.7144,100767.68
1.4316,-0.2485,-0.7539,-100.061,-36.951,-40.183,1.637,100767.91
0.9492,0.0269,0.0015,8.598,14.146,-10.244,0.9496,100767.73
0.2705,0.0405,-0.2383,-16.341,-0.366,3.902,0.3628,100767.84
0.1147,0.124,-0.1841,-7.317,-26.463,-4.756,0.2499,100768.41
0.1621,0.2373,-0.1377,1.89,6.951,-20.854,0.3187,100768.35
0.7573,0.1006,-0.2671,-0.793,-14.085,-42.5,0.8093,100768.05
2.0234,-0.2134,-0.1001,34.451,-8.354,-37.317,2.0371,100767.34
1.1685,0.0693,0.3813,84.878,34.451,22.439,1.2311,100767.3
1.75,-0.0161,-0.0361,36.951,-53.232,-28.963,1.7504,100767.16
2.0205,-0.0532,-0.4434,32.805,-43.72,-30.61,2.0693,100766.68
0.8423,0.1743,-0.0908,74.085,32.622,15.122,0.8649,100766.68
0.3521,0.1016,-0.3115,41.341,-1.585,16.463,0.4809,100766.69
0.373,-0.02,-0.4785,43.354,-19.756,8.476,0.6071,100766.56
0.6729,-0.0635,0.2456,70.915,14.634,7.866,0.7191,100766.48
0.6763,-0.1548,0.2329,1.768,7.805,26.402,0.7318,100766.65
0.8301,-0.2197,-0.2764,-51.829,-33.72,33.049,0.902,100767.62
1.3569,-0.4214,-0.3516,-32.561,-22.012,28.11,1.4637,100767.52
0.7852,-0.3081,-0.1436,5.366,28.415,42.683,0.8556,100767.07
1.0161,-0.1807,0.3706,7.744,9.756,-20.976,1.0966,100767.09
2.1221,-0.2324,-0.1396,-66.341,-42.683,-68.049,2.1393,100767.83
1.3794,-0.1079,-0.499,-50.854,25.0,-18.354,1.4708,100768.04
0.772,0.0425,0.0264,3.841,49.39,8.049,0.7736,100768.42
0.5015,0.0957,0.0771,-17.5,25.061,13.537,0.5163,100768.22
0.4409,0.2222,-0.0127,-38.415,1.829,13.841,0.4939,100767.83
0.4155,0.248,-0.2178,-48.902,-23.293,7.378,0.5307,100768.49
0.7939,0.1392,-0.6025,-21.098,-34.634,-16.829,1.0064,100769.02
1.9878,-0.1367,-0.0259,63.415,-11.28,-31.341,1.9927,100768.41
1.4043,-0.0264,0.2905,89.573,19.146,14.573,1.4343,100768.46
1.3364,-0.1343,-0.1758,62.622,-6.951,-10.671,1.3546,100768.48
1.7783,-0.1577,0.0054,73.963,-18.232,-27.073,1.7853,100768.62
0.8716,-0.0981,-0.3691,34.146,-6.646,24.451,0.9516,100768.85
0.0249,-0.0889,-0.7461,41.402,2.866,45.732,0.7518,100767.41
0.2847,-0.0049,0.2197,78.476,13.963,21.89,0.3596,100768.2
0.3047,-0.105,0.1294,-13.415,2.561,18.963,0.3473,100767.8
0.6045,-0.0933,0.0356,-67.744,-11.829,6.707,0.6127,100768.11
1.5225,-0.1714,0.1265,-93.659,-19.085,-13.963,1.5373,100768.23
1.4961,-0.4321,-0.7422,-98.841,-19.024,15.793,1.7251,100768.44
1.2188,-0.1587,0.2593,13.415,40.305,21.341,1.2561,100768.34
1.415,-0.2676,0.0967,-35.976,-10.244,-21.89,1.4434,100767.66
1.3999,-0.2876,-0.6777,-45.0,-35.244,-24.939,1.5817,100767.38
0.5718,0.0205,0.2588,48.415,50.976,5.0,0.628,100767.2
0.0649,0.1304,0.4487,-9.329,35.244,-11.037,0.4718,100767.28
0.6294,-0.0259,-0.5386,-90.854,-9.756,-36.037,0.8288,100767.34
0.8682,0.0137,-0.3389,-31.524,44.695,-9.024,0.9321,100767.65
0.8755,0.2466,-0.1479,-16.768,3.598,2.317,0.9215,100767.62
1.896,-0.1221,-0.9482,-25.427,-54.512,-21.951,2.1234,100767.37
1.459,0.0034,-0.0063,112.561,11.829,28.902,1.459,100767.66
1.1875,-0.0479,0.4756,108.415,-3.11,18.232,1.2801,100768.87
1.7329,-0.1392,0.0518,31.89,-35.976,-18.354,1.7393,100768.43
1.1299,-0.0757,-0.3335,26.951,4.146,10.122,1.1805,100767.59
0.5112,-0.0356,-0.0166,57.805,30.427,32.012,0.5127,100767.83
0.0288,-0.0356,0.2017,37.927,8.415,35.915,0.2068,100768.14
0.0708,-0.0117,0.1406,-20.305,-24.146,7.5,0.1579,100768.74
0.8472,-0.1333,-0.4087,-83.78,-24.756,-8.841,0.95,100768.95
1.104,-0.2153,-0.4873,-60.0,6.402,16.829,1.2258,100768.98
1.4146,-0.48,-0.2563,-23.354,-4.634,24.817,1.5156,100768.27
1.209,-0.3799,-0.0107,1.463,52.256,27.561,1.2673,100768.59
1.6016,-0.2822,0.5166,-1.768,69.146,-24.817,1.7063,100768.3
1.8398,-0.2173,-0.0381,-64.207,23.415,-35.915,1.853,100768.59
0.7344,0.0312,-0.2534,-44.512,11.768,11.402,0.7775,100768.7
0.313,0.0347,-0.5117,-29.695,-30.671,-12.622,0.6008,100768.66
0.4307,-0.0005,-0.2891,10.488,-2.317,-5.793,0.5187,100767.9
0.9258,0.1304,0.4146,20.183,-5.732,-12.927,1.0227,100768.79
1.5898,-0.1094,-0.6494,-54.939,-130.854,-22.5,1.7208,100769.45
1.5903,0.0767,-0.8647,68.78,-78.232,12.622,1.8119,100768.59
1.7134,-0.0942,0.6064,198.78,34.146,-28.049,1.82,100767.96
1.2466,-0.1611,0.7808,98.72,51.89,-4.146,1.4797,100767.73
0.3555,-0.104,0.2324,-25.244,34.39,6.098,0.4373,100767.8
0.3564,-0.1992,-0.4878,-88.902,-2.927,-13.537,0.6361,100768.46
0.3403,-0.1846,-0.4224,-54.939,14.024,-2.683,0.573,100767.74
0.6567,-0.1636,-0.1138,-36.402,17.317,4.939,0.6863,100768.8
1.1196,-0.2324,-0.1797,-59.939,-0.061,12.683,1.1575,100768.23
1.4155,-0.3848,-0.4136,-51.524,-15.976,15.305,1.5241,100767.94
1.5605,-0.4019,-0.3423,2.439,14.146,9.146,1.6474,100768.59
1.8271,-0.2705,0.5112,57.256,79.39,-8.537,1.9165,100768.94
1.3618,-0.186,0.2378,-7.988,48.78,-12.683,1.3949,100769.32
1.0024,-0.1689,-0.4019,-48.476,-30.976,-18.293,1.0931,100768.89
0.5503,-0.0879,-0.2388,-10.732,-27.5,12.195,0.6063,100768.68
0.0215,-0.0029,-0.2012,-0.061,-4.207,25.427,0.2023,100769.23
0.1738,0.0479,-0.0566,9.024,39.39,3.537,0.189,100769.17
0.7412,0.0107,0.4429,3.902,42.378,-6.22,0.8635,100768.52
1.3188,0.0176,-0.2222,-72.317,-42.012,-12.744,1.3375,100768.04
1.7871,-0.1377,-0.5771,-2.012,50.488,-10.122,1.883,100767.66
1.1606,0.1074,0.9131,141.89,79.451,44.878,1.4807,100768.02
1.0957,-0.1094,-0.0493,49.207,-79.329,16.037,1.1023,100768.37
1.4624,-0.0371,0.208,86.402,-38.841,-26.28,1.4776,100768.66
0.772,0.0239,0.7632,74.512,48.354,-23.78,1.0858,100769.49
0.9365,-0.271,-0.1572,-41.463,-48.354,-30.976,0.9875,100768.88
0.6738,-0.3218,-0.2993,-32.012,-44.085,6.159,0.8045,100769.03
0.3906,-0.1963,-0.0679,-20.305,-33.476,34.939,0.4424,100769.88
0.8096,-0.2808,-0.2271,-47.439,-38.902,37.439,0.8864,100769.16
1.1938,-0.3301,-0.1367,-39.024,-32.256,45.854,1.2462,100768.75
1.1592,-0.4443,-0.2549,-33.72,-6.22,50.183,1.2673,100768.09
0.8198,-0.2305,0.3286,1.646,65.549,18.963,0.9128,100768.43
1.7578,-0.1602,0.7856,-54.817,36.341,-64.451,1.932,100768.93
1.7993,-0.2651,-0.4604,-147.988,-11.402,-54.878,1.8761,100767.72
