ax,ay,az,gx,gy,gz,avm,pressure
1.0586,0.1641,-0.3042,-37.439,-27.378,-6.829,1.1136,100781.86
1.1309,0.1099,-0.1543,-32.5,-14.634,2.195,1.1466,100781.73
1.0967,-0.0103,-0.0615,-21.463,-8.659,7.866,1.0985,100781.41
0.9321,-0.1309,-0.1182,-2.866,-0.793,2.744,0.9487,100780.65
0.8618,-0.1606,-0.1035,10.305,19.268,-3.841,0.8828,100780.57
0.9482,-0.123,-0.0791,0.488,28.598,-2.744,0.9595,100780.41
0.9873,-0.0542,-0.1802,-9.695,17.622,2.683,1.0051,100778.7
0.9438,-0.0659,-0.1357,-3.659,8.841,6.28,0.9558,100778.16
0.8945,-0.0879,-0.1211,0.976,15.854,8.78,0.907,100777.52
0.9004,-0.0908,-0.1802,-0.244,28.841,9.817,0.9227,100777.41
0.9502,-0.1196,-0.2144,-5.793,28.659,7.744,0.9814,100777.32
0.9722,-0.105,-0.2217,-11.646,8.415,-0.488,1.0026,100777.87
0.9312,-0.082,-0.2109,-15.549,-9.451,-5.061,0.9583,100778.02
0.8828,-0.082,-0.1978,-15.671,-11.524,-4.512,0.9084,100777.53
0.9224,-0.0625,-0.2402,-16.159,-2.256,-6.159,0.9552,100777.66
1.0181,-0.0337,-0.3101,-14.512,5.183,-5.183,1.0648,100777.72
1.1377,-0.0034,-0.2983,-4.329,13.476,4.817,1.1762,100778.4
1.1279,0.0029,-0.3335,7.012,13.902,11.22,1.1762,100777.94
1.1113,0.0142,-0.3433,12.988,22.073,13.902,1.1632,100778.46
1.1968,-0.0742,-0.1353,10.793,22.195,10.244,1.2067,100777.73
1.1904,-0.1387,0.1724,17.744,-8.902,-5.915,1.2108,100776.7
1.0469,0.0215,0.2729,29.634,-25.671,-7.866,1.0821,100776.88
0.9658,0.3057,0.1968,29.512,-7.195,1.159,1.032,100776.8
0.9136,0.3101,0.0693,17.561,15.427,5.244,0.9672,100777.35
0.8584,0.0186,-0.0596,5.061,-16.585,-22.866,0.8607,100775.27
0.856,0.0415,-0.1079,10.488,0.549,-5.549,0.8637,100774.73
0.9395,0.0723,-0.1782,8.72,14.756,3.11,0.9589,100775.55
0.9678,0.0786,-0.1558,11.585,4.939,4.512,0.9834,100775.44
0.8667,0.0493,-0.1465,18.293,-4.878,12.866,0.8804,100775.11
0.8384,0.0293,-0.1743,18.537,3.232,20.427,0.8568,100774.73
0.9995,0.02,-0.1943,5.305,18.902,16.829,1.0184,100774.46
1.1948,0.0244,-0.2393,-13.11,25.0,16.402,1.2188,100775.95
1.2207,0.0479,-0.2222,-23.72,4.024,16.22,1.2417,100777.45
1.2285,0.1035,-0.1895,-28.171,-30.854,4.756,1.2473,100776.87
1.2964,-0.0288,0.1035,-28.659,-13.232,-1.28,1.3008,100776.55
1.2061,-0.1567,0.2324,-29.939,8.11,-5.915,1.2382,100775.79
0.9106,-0.1694,0.1372,-10.244,-18.11,-2.195,0.9364,100776.12
0.6797,-0.2178,0.103,0.976,-19.268,16.768,0.7211,100776.23
0.7505,-0.2358,0.0811,-13.537,10.854,21.402,0.7908,100775.95
0.8853,-0.1328,-0.063,-36.89,30.122,13.537,0.8974,100776.37
0.9346,-0.0923,-0.0981,-38.78,15.244,1.646,0.9442,100775.57
0.9531,-0.0737,-0.0425,-30.244,2.195,-7.866,0.9569,100775.96
0.9404,-0.1162,-0.0967,-22.439,13.049,-7.012,0.9525,100775.88
0.9473,-0.0908,-0.1821,-9.39,14.39,-1.402,0.9689,100775.46
0.9111,-0.0386,-0.1841,-2.317,4.329,-0.732,0.9303,100775.51
0.8833,-0.0381,-0.1445,-9.756,1.098,-10.671,0.8959,100776.18
0.9478,-0.0132,-0.2285,-9.634,15.915,-15.854,0.975,100776.44
1.1265,-0.0396,-0.2344,16.341,18.598,-9.39,1.1513,100777.2
1.1909,-0.0244,-0.2705,30.793,-3.659,-2.073,1.2215,100777.19
1.2749,-0.0625,-0.0913,45.061,-10.976,10.366,1.2797,100776.94
1.3682,-0.2744,0.3032,45.305,20.854,28.049,1.428,100777.24
1.1226,-0.2046,0.3726,57.317,-7.195,22.866,1.2003,100777.48
0.9224,0.1772,0.3184,67.134,-45.244,0.061,0.9917,100777.16
0.8491,0.2246,0.2505,45.854,-20.915,-0.305,0.9133,100776.33
0.7861,0.0459,0.1484,21.098,11.098,8.72,0.8013,100776.2
0.7256,-0.0688,-0.0566,0.854,6.829,0.488,0.731,100775.59
0.7637,-0.0825,-0.1553,-6.768,-0.976,-19.451,0.7837,100775.4
0.9048,-0.0186,-0.1157,-10.61,11.402,-23.659,0.9123,100774.11
0.9453,0.0205,-0.0938,-19.817,13.78,-20.793,0.9502,100773.77
0.9336,0.0332,-0.1133,-14.939,-1.768,-21.402,0.941,100773.4
0.8853,0.0435,-0.1196,1.159,-3.841,-12.317,0.8944,100773.38
0.9121,0.064,-0.1704,0.915,6.22,-7.5,0.9301,100774.23
1.144,0.0376,-0.1821,-17.927,17.622,-18.902,1.1591,100773.88
1.2837,0.0278,-0.2075,-33.354,-3.902,-26.524,1.3007,100774.24
1.293,0.064,-0.2876,-30.915,-16.402,-10.549,1.3261,100774.02
1.2656,0.1245,-0.2432,-26.707,-23.841,-2.439,1.2948,100774.32
1.2949,0.1265,0.1533,-36.098,-33.659,-3.659,1.3101,100775.53
1.1377,-0.0396,0.4033,-45.488,-21.829,8.354,1.2077,100774.24
0.9077,-0.1372,0.2549,-28.11,-16.646,22.012,0.9528,100773.52
0.6743,-0.1987,0.1401,-15.488,1.341,29.756,0.7168,100774.56
0.6401,-0.2148,0.0952,-15.305,10.976,18.11,0.6819,100775.61
0.811,-0.0884,-0.0117,-12.378,31.098,9.146,0.8159,100774.91
0.9062,-0.0132,-0.0791,-15.244,15.122,4.39,0.9098,100775.11
0.9238,-0.02,-0.0591,-18.232,1.768,-2.683,0.9259,100776.02
1.0063,-0.0244,-0.1367,-15.671,14.451,-7.378,1.0159,100775.71
1.0278,-0.0532,-0.1851,-6.037,5.793,-8.293,1.0457,100776.35
0.9448,-0.0801,-0.1367,-3.963,-5.061,-7.317,0.958,100776.82
0.9224,-0.0327,-0.1748,-10.427,-4.817,-13.171,0.9394,100777.18
1.0015,0.0127,-0.2104,-8.659,-0.183,-13.78,1.0234,100777.34
1.1484,0.0049,-0.2197,2.622,10.61,-7.5,1.1693,100778.31
1.2441,0.0137,-0.2993,18.78,12.683,-1.159,1.2797,100778.54
1.2041,0.0444,-0.2515,34.634,-12.195,0.244,1.2309,100777.98
1.2266,-0.0469,0.083,37.378,-18.72,0.0,1.2303,100778.18
1.2251,-0.1021,0.2861,37.317,-15.976,4.329,1.2622,100778.3
0.9033,0.1504,0.2544,38.841,-47.988,4.085,0.9504,100776.69
0.7681,0.2998,0.1958,31.28,-43.415,1.768,0.8474,100776.95
0.75,0.1807,0.1084,27.378,7.012,5.122,0.779,100775.93
0.7925,0.04,-0.0957,24.634,41.707,0.915,0.7992,100775.78
0.8481,-0.0142,-0.1694,26.098,34.39,-5.244,0.865,100774.55
0.8774,-0.021,-0.0972,23.963,11.037,-2.744,0.8831,100774.62
0.9346,0.0269,-0.1421,15.183,21.646,6.951,0.9457,100774.31
0.9497,0.0723,-0.1548,4.512,18.72,7.683,0.9649,100774.45
0.9507,0.041,-0.1079,0.61,2.073,1.037,0.9577,100773.67
0.9624,0.002,-0.1177,2.866,12.195,6.768,0.9696,100773.72
1.061,-0.0269,-0.1846,-0.976,15.244,9.024,1.0773,100775.37
1.2192,-0.0591,-0.1909,-18.963,11.646,2.561,1.2355,100775.49
1.3042,0.0576,-0.2744,-37.317,-14.756,-3.415,1.334,100776.57
1.3115,0.0796,-0.2383,-45.854,-41.707,-17.744,1.3354,100776.27
1.3052,-0.0234,0.1108,-54.451,-46.768,-35.793,1.3101,100775.66
1.0835,-0.1475,0.3101,-40.61,-60.915,-17.134,1.1366,100775.35
0.8081,-0.1118,0.1924,-11.463,-36.098,9.695,0.8382,100774.62
0.6851,-0.1509,0.1304,1.159,-0.244,29.695,0.7135,100774.2
0.7334,-0.1392,0.0195,-16.707,35.305,25.732,0.7467,100773.38
0.8735,-0.0518,-0.1343,-35.488,40.732,9.207,0.8853,100773.89
0.9189,-0.0454,-0.1284,-35.183,8.171,-5.549,0.929,100773.14
0.8857,-0.0146,-0.1206,-24.024,0.0,-7.317,0.894,100772.95
0.8789,-0.0073,-0.126,-7.195,12.256,-0.305,0.8879,100773.43
0.9487,-0.0674,-0.1494,3.11,23.72,1.951,0.9628,100772.8
1.0005,-0.1172,-0.1968,-2.988,31.463,3.049,1.0264,100772.83
1.0747,-0.0693,-0.3125,-11.524,10.732,-10.061,1.1214,100773.11
1.1362,-0.0391,-0.2393,3.171,-14.39,-20.183,1.1618,100772.81
1.2104,0.0386,-0.2036,20.244,-8.232,-3.78,1.2281,100773.22
1.2271,0.0542,-0.2793,28.659,-6.585,10.122,1.2596,100772.41
1.2637,-0.0801,0.0195,29.207,-9.573,5.183,1.2664,100773.64
1.1523,-0.1548,0.2534,20.61,-21.707,-5.427,1.19,100774.56
0.8848,0.1177,0.1943,35.305,-42.134,-6.951,0.9135,100774.64
0.7471,0.2622,0.1816,36.585,-26.951,-5.732,0.8123,100774.84
0.7661,0.168,0.0762,20.0,-9.756,-11.829,0.788,100775.58
0.8379,0.1064,-0.0889,7.805,22.805,-10.915,0.8493,100774.67
0.7988,0.0308,-0.209,6.829,23.902,-9.878,0.8263,100774.74
0.7993,0.002,-0.1309,17.744,10.427,-8.415,0.81,100774.91
0.8711,0.0439,-0.166,13.963,17.195,-3.354,0.8879,100774.91
0.9858,0.1157,-0.209,12.927,17.683,-0.732,1.0144,100774.79
1.061,0.2139,-0.2065,15.915,11.22,-0.244,1.1019,100775.43
1.0801,0.2515,-0.2852,15.61,-2.012,7.744,1.145,100775.54
1.1416,0.1128,-0.2686,8.171,-14.573,13.232,1.1782,100775.77
1.1509,-0.0771,-0.2217,-14.695,-29.634,-1.341,1.1746,100776.17
1.2285,0.0142,-0.3193,-30.122,-35.122,-21.098,1.2694,100776.24
1.3745,0.0454,-0.0835,-28.72,-14.268,-12.195,1.3778,100775.79
1.1348,-0.1406,0.2178,-22.744,-21.89,4.939,1.164,100775.08
0.9429,-0.187,0.2529,-6.098,-4.39,13.841,0.994,100774.31
0.7627,-0.1372,0.1895,3.841,14.695,25.488,0.7978,100774.1
0.6968,-0.0928,-0.0327,-17.561,19.573,12.744,0.7037,100774.2
0.7939,0.0308,-0.2397,-30.61,22.866,-5.793,0.8299,100773.77
0.8208,-0.0034,-0.1616,-21.829,9.451,-7.866,0.8366,100774.84
0.8452,-0.0479,-0.0444,-11.037,1.585,-8.598,0.8477,100774.86
0.9834,-0.0161,-0.1836,-0.732,15.122,-6.646,1.0005,100774.66
1.0474,-0.0591,-0.228,14.573,22.378,0.915,1.0735,100774.38
1.0254,-0.083,-0.2134,9.512,5.244,-2.988,1.0506,100775.27
0.9971,-0.0513,-0.2759,-2.134,-18.537,-14.024,1.0358,100775.09
1.0957,-0.0034,-0.2183,6.463,-10.854,-12.622,1.1172,100774.57
1.2139,0.0806,-0.2471,20.305,-0.488,-2.622,1.2414,100774.43
1.2065,0.1006,-0.3105,27.988,-1.768,6.28,1.2499,100774.46
1.2402,-0.0952,-0.0161,23.049,-6.829,1.28,1.244,100774.47
1.1104,-0.1616,0.1499,23.049,-51.768,-12.866,1.132,100774.98
0.9019,0.1021,0.0767,51.585,-69.573,-13.537,0.9108,100774.34
0.8501,0.3296,0.1211,65.427,-28.902,-2.195,0.9198,100773.27
0.8276,0.2422,0.0923,31.768,1.463,7.134,0.8673,100773.09
0.813,0.04,-0.189,-12.988,14.024,-1.22,0.8356,100772.96
0.793,-0.0107,-0.3066,-17.805,8.415,-17.134,0.8503,100772.98
0.8477,0.0142,-0.2197,-13.598,19.207,-14.695,0.8758,100773.12
0.8828,0.0483,-0.2388,-15.61,22.622,-5.549,0.9158,100772.39
0.9009,0.0942,-0.2783,-6.28,1.707,-0.793,0.9476,100772.29
0.854,0.1099,-0.2793,-2.012,1.28,10.122,0.9052,100772.61
0.9219,0.1313,-0.4062,-4.573,3.963,10.366,1.0159,100772.47
1.0259,0.124,-0.4268,-8.293,-7.561,7.744,1.118,100772.02
1.2236,0.0771,-0.3516,-21.22,-20.671,-1.585,1.2755,100773.52
1.1929,0.0869,-0.377,-32.805,-26.159,3.537,1.254,100773.67
1.1929,0.1465,-0.3872,-23.902,-16.098,6.037,1.2627,100773.52
1.2876,0.0361,-0.0654,-19.695,-17.683,4.024,1.2898,100773.3
0.9731,-0.1509,0.1187,-21.829,-18.049,6.28,0.9919,100773.25
0.7734,-0.1069,0.0474,-7.439,-3.598,15.061,0.7822,100773.35
0.6694,-0.1372,0.0234,-2.927,37.5,26.159,0.6838,100772.68
0.8467,-0.1396,0.0239,-13.415,35.915,7.195,0.8585,100772.43
0.9551,-0.0459,-0.1934,-34.573,8.537,-9.817,0.9755,100773.22
0.9395,0.0278,-0.3599,-32.561,19.085,-2.927,1.0064,100773.71
0.8936,-0.001,-0.2354,-10.122,28.049,6.829,0.924,100773.93
0.8745,-0.105,-0.1636,-10.305,20.671,7.073,0.8959,100773.61
0.9111,-0.0986,-0.2979,-11.037,16.22,0.0,0.9636,100773.0
1.0093,-0.0352,-0.3857,-4.268,11.646,-8.11,1.0811,100772.41
1.1333,-0.0269,-0.3091,-0.976,-0.366,-10.488,1.175,100773.47
1.1636,0.0806,-0.3369,21.28,-16.951,-0.671,1.214,100773.23
1.2261,0.041,-0.1221,38.963,-3.415,6.037,1.2328,100773.08
1.1831,-0.0596,0.1748,28.11,-39.085,-2.195,1.1974,100772.96
0.9409,0.1606,0.0244,21.037,-66.768,-9.695,0.9548,100772.4
0.8433,0.3286,-0.0522,34.817,-25.488,-0.61,0.9065,100773.2
0.8452,0.2393,0.0049,49.817,4.634,2.988,0.8784,100773.06
0.8447,0.0942,-0.0835,31.707,11.951,-4.085,0.8541,100772.98
0.7788,0.0708,-0.3057,4.207,-11.098,-15.488,0.8396,100772.77
0.7378,0.0532,-0.3657,4.329,-7.5,-16.037,0.8252,100772.73
0.772,0.021,-0.2759,21.341,9.878,-9.756,0.8201,100771.73
0.8418,0.062,-0.3057,24.512,14.634,-7.195,0.8977,100772.21
0.9688,0.0869,-0.3379,22.317,35.305,-5.305,1.0297,100771.98
1.0454,0.0952,-0.377,8.78,33.78,-9.634,1.1154,100771.16
1.0151,0.0859,-0.4277,-11.646,-3.72,-14.207,1.1049,100771.3
1.085,0.0635,-0.3628,-6.524,-24.146,-8.293,1.1458,100772.27
1.2183,0.1436,-0.3706,-1.463,-20.61,-1.402,1.2815,100772.11
1.3936,0.0088,-0.0518,-22.317,7.622,1.402,1.3945,100771.77
1.1699,-0.1367,0.1445,-32.439,-30.122,-19.939,1.1867,100772.13
0.7793,-0.0459,0.0659,-2.988,-37.988,-10.976,0.7834,100771.68
0.7671,-0.062,0.0161,7.073,18.11,20.244,0.7698,100770.81
0.9253,-0.064,-0.1411,-24.512,39.939,20.793,0.9382,100770.54
0.9199,-0.043,-0.2944,-42.622,22.988,7.439,0.9668,100771.09
0.8247,-0.0376,-0.229,-25.61,3.902,5.854,0.8567,100771.38
0.8066,-0.0361,-0.1533,-9.573,-3.841,8.232,0.8219,100771.72
0.8608,-0.0762,-0.248,-12.988,1.463,10.0,0.8991,100771.97
0.9517,-0.0835,-0.4072,-13.415,7.988,4.268,1.0385,100772.15
1.0254,-0.0391,-0.4385,-9.512,0.061,-6.159,1.1159,100772.3
1.0137,-0.0483,-0.3442,-6.707,-30.061,-12.622,1.0716,100772.66
1.0283,0.0044,-0.3101,5.793,-42.378,-8.963,1.0741,100773.18
1.0327,0.1035,-0.3555,23.171,-4.024,5.793,1.0971,100773.83
1.1836,0.0601,-0.1709,26.89,33.902,11.28,1.1974,100772.73
1.2627,-0.0791,0.1064,13.232,13.293,-1.768,1.2696,100773.0
1.0303,0.1533,-0.0576,15.122,-37.134,-10.366,1.0432,100772.97
0.9077,0.3467,-0.0952,26.341,-10.244,-3.415,0.9763,100773.44
0.8794,0.3071,-0.1411,20.732,7.866,-7.012,0.9421,100773.16
0.8516,0.1431,-0.2935,2.195,26.463,-10.122,0.912,100772.95
0.8403,0.0767,-0.3232,-3.11,15.854,-11.768,0.9036,100772.8
0.8052,0.0391,-0.2397,6.951,-7.561,-11.22,0.841,100773.2
0.7739,0.0503,-0.2021,17.866,-3.537,-5.549,0.8015,100772.77
0.7817,0.1226,-0.3115,17.988,0.671,-0.061,0.8504,100773.31
0.8525,0.1479,-0.3682,14.024,4.756,6.707,0.9403,100773.83
0.9717,0.1025,-0.4043,4.024,16.463,13.841,1.0574,100773.86
1.0405,0.0684,-0.3999,-11.159,-2.195,9.024,1.1168,100773.87
1.1152,0.0684,-0.397,-18.537,-24.024,2.439,1.1858,100773.48
1.2256,0.1421,-0.4258,-12.256,-16.159,5.061,1.3052,100773.33
1.356,0.041,-0.1396,-15.549,4.329,9.512,1.3637,100773.71
1.1602,-0.1108,0.0615,-29.939,-14.024,-2.5,1.1671,100773.63
0.8545,-0.105,-0.0034,-8.841,-13.72,-1.89,0.8609,100773.59
0.8071,-0.1201,0.0283,9.451,34.451,20.671,0.8165,100773.66
0.8818,-0.1323,-0.0479,-14.756,46.463,23.78,0.893,100774.23
0.9248,-0.1069,-0.2451,-36.463,24.695,10.061,0.9627,100773.9
0.8823,-0.0732,-0.2666,-27.5,15.671,3.598,0.9246,100773.78
0.8193,-0.0996,-0.1382,-12.683,15.061,8.78,0.8369,100774.18
0.7959,-0.1289,-0.1294,-13.598,13.049,12.744,0.8166,100773.51
0.8462,-0.1094,-0.248,-14.207,15.427,11.89,0.8886,100774.23
0.9395,-0.0586,-0.3398,-8.354,10.305,4.451,1.0007,100774.29
1.0698,-0.0454,-0.3135,-7.683,8.598,-1.646,1.1157,100774.32
1.1899,-0.0449,-0.3662,-4.39,-0.854,-5.244,1.2458,100774.11
1.1899,-0.0449,-0.3662,-4.39,-0.854,-5.244,1.2458,100774.18
1.1909,0.0137,-0.3354,18.415,-16.159,-6.28,1.2373,100773.77
1.249,-0.0098,-0.1411,35.305,-4.207,-3.415,1.257,100773.55
1.2607,-0.1665,0.1636,26.951,0.427,0.183,1.2822,100773.29
0.9668,0.0117,0.0518,22.988,-27.866,2.683,0.9683,100773.59
0.8428,0.2046,0.0479,37.866,-4.512,10.0,0.8686,100773.7
0.9321,0.2075,0.1406,39.939,13.963,1.341,0.9652,100773.05
0.915,0.166,-0.0225,11.707,9.451,-11.768,0.9302,100772.3
0.7896,0.0835,-0.248,-19.817,8.963,-14.573,0.8318,100771.97
0.7441,0.0098,-0.2456,-19.085,9.329,-15.061,0.7837,100772.35
0.7583,-0.0225,-0.1558,-2.378,11.402,-13.598,0.7745,100772.02
0.7979,-0.0015,-0.1934,9.207,10.244,-8.232,0.8209,100772.04
0.9312,0.0615,-0.2979,20.976,1.585,-1.768,0.9796,100772.39
1.0933,0.1187,-0.3467,21.646,-11.463,-0.122,1.153,100772.2
1.1753,0.1104,-0.3447,3.72,-11.951,3.415,1.2298,100773.62
1.1807,0.0454,-0.3071,-13.659,-14.878,3.72,1.2208,100773.95
1.1968,0.0659,-0.2974,-11.768,-31.098,0.671,1.2349,100773.36
1.21,0.0527,-0.3418,-17.012,-14.878,4.695,1.2584,100773.27
1.1665,-0.1099,-0.002,-30.183,3.171,1.768,1.1717,100772.71
1.0552,-0.144,0.1182,-23.78,-31.463,-15.549,1.0715,100772.55
0.8701,-0.083,-0.0122,-0.488,-18.659,0.244,0.8742,100772.18
0.772,-0.1353,0.0068,7.195,33.659,26.585,0.7838,100772.9
0.8188,-0.2119,0.0908,-8.902,31.646,17.927,0.8507,100772.69
0.8877,-0.1704,-0.022,-26.22,3.963,-3.963,0.9042,100772.27
0.8008,-0.0718,-0.1855,-25.61,5.793,-6.463,0.8251,100771.84
0.772,-0.0566,-0.1509,-11.22,23.902,1.341,0.7886,100772.03
0.7993,-0.0669,-0.0786,-9.268,21.159,6.159,0.806,100772.17
0.9404,-0.0977,-0.1621,-21.646,19.329,12.073,0.9593,100772.28
1.1035,-0.1157,-0.3638,-32.317,22.561,11.768,1.1677,100772.84
1.1538,-0.0815,-0.4883,-32.683,19.573,2.195,1.2555,100772.64
1.21,-0.0732,-0.4019,-15.976,-0.122,-2.805,1.2771,100773.25
1.2217,-0.0493,-0.2852,3.171,-24.939,-0.549,1.2555,100773.46
1.1001,-0.0225,-0.2432,17.988,-27.927,6.341,1.1269,100772.26
1.0386,0.0107,-0.1484,34.573,-24.817,6.28,1.0492,100772.34
1.0659,-0.0142,-0.0195,38.232,-37.988,1.28,1.0662,100771.94
1.0449,0.0244,-0.0273,39.756,-48.293,1.829,1.0456,100772.11
0.9375,0.0752,-0.063,50.915,-21.037,9.146,0.9426,100771.38
0.8926,0.0703,-0.0005,61.707,3.476,2.073,0.8953,100770.7
0.8779,0.0303,-0.0068,50.671,9.329,-5.427,0.8785,100771.18
0.8247,-0.0303,-0.1353,23.963,8.537,-4.024,0.8363,100770.43
0.7964,-0.0449,-0.2783,6.463,-4.39,-7.561,0.8448,100770.38
0.9258,-0.0747,-0.3062,0.976,-3.049,-13.11,0.9779,100771.41
0.9077,-0.062,-0.355,-1.341,-28.72,-10.671,0.9766,100771.84
0.9072,-0.0571,-0.3208,2.439,-26.28,-4.573,0.964,100772.05
0.9697,-0.0806,-0.3115,-7.256,-13.171,1.159,1.0217,100771.95
1.0576,-0.1045,-0.2954,-23.476,-20.915,-0.854,1.1031,100771.64
1.1592,-0.0864,-0.3662,-35.732,-28.293,-10.671,1.2187,100772.01
1.1475,-0.0439,-0.3081,-33.902,-25.915,-15.427,1.1889,100772.91
0.9907,0.0024,-0.2739,-41.646,-6.707,-7.134,1.0279,100773.09
1.0742,0.0059,-0.2188,-46.707,25.061,-12.561,1.0963,100773.6
0.9722,0.0,-0.0464,-31.829,30.427,-10.488,0.9733,100772.98
0.7876,-0.0239,-0.0845,-25.732,42.134,10.427,0.7925,100772.52
0.7998,-0.0693,-0.1533,-19.451,44.329,12.134,0.8173,100772.93
0.8853,-0.0376,-0.1489,-16.037,32.5,-2.866,0.8985,100772.12
0.9336,-0.0479,-0.1826,-19.39,39.695,2.5,0.9525,100772.4
0.9556,-0.0752,-0.2314,-9.634,36.28,13.049,0.9861,100772.07
0.9365,-0.0679,-0.2158,2.439,27.439,17.317,0.9635,100771.86
0.9878,-0.0547,-0.187,6.951,29.756,17.073,1.0068,100771.57
1.0366,-0.0479,-0.2002,3.598,14.329,12.317,1.0569,100772.22
1.0527,-0.0752,-0.2407,-3.72,-5.122,7.988,1.0825,100772.33
1.0122,-0.0928,-0.2969,-5.427,-12.683,6.402,1.0589,100773.04
1.0337,-0.0503,-0.293,6.768,-24.024,-7.256,1.0756,100773.2
1.0869,-0.04,-0.2041,29.573,-30.366,-15.671,1.1066,100773.81
1.0859,-0.0293,-0.0024,45.793,-25.854,-6.951,1.0863,100772.92
1.1255,-0.0288,-0.0303,23.659,-27.317,-9.878,1.1263,100772.88
1.0786,0.0601,-0.0171,19.024,-31.829,-9.878,1.0804,100772.58
1.0117,0.1333,-0.0044,25.061,-16.646,7.744,1.0205,100772.96
0.876,0.1206,-0.042,23.415,6.768,20.122,0.8852,100772.28
0.7686,0.0527,-0.106,17.317,23.537,22.317,0.7776,100773.38
0.7222,-0.0073,-0.168,9.207,34.634,16.951,0.7415,100773.34
0.7856,-0.02,-0.25,2.927,25.671,-2.195,0.8247,100772.7
0.918,0.002,-0.2764,3.78,21.037,-15.305,0.9587,100772.69
1.1294,-0.0015,-0.2773,-2.866,28.902,-10.244,1.163,100771.83
1.1504,-0.0254,-0.3481,-15.0,14.878,4.817,1.2022,100771.93
1.0518,0.0,-0.3486,-15.976,-0.854,13.293,1.108,100772.48
0.9409,0.0181,-0.3501,-15.854,-23.72,5.915,1.0041,100772.78
0.959,-0.0112,-0.3311,-11.037,-31.707,-10.854,1.0146,100773.38
1.0171,-0.0581,-0.1597,7.073,-37.012,-23.902,1.0312,100773.47
1.0474,-0.0703,0.1196,13.476,-15.244,-23.659,1.0565,100773.76
1.0864,-0.0776,0.0923,-26.22,-10.61,-40.671,1.0931,100774.26
1.0679,-0.0747,-0.0176,-42.927,-26.098,-52.988,1.0706,100774.38
0.9551,-0.0806,0.0005,-27.256,0.122,-20.61,0.9585,100774.35
0.8379,-0.1094,-0.084,-28.72,20.305,-1.524,0.8492,100774.19
0.8921,-0.085,-0.1201,-18.049,10.183,-10.915,0.9041,100774.2
0.9639,-0.0254,-0.1064,-14.146,9.512,-5.488,0.9701,100774.2
0.9634,0.0151,-0.2378,-20.732,13.293,11.098,0.9924,100773.34
0.9868,0.0156,-0.2827,-10.061,5.122,18.354,1.0266,100772.94
0.9683,0.0098,-0.2563,-4.146,11.22,29.451,1.0017,100773.38
0.9707,-0.0288,-0.2744,-8.598,14.634,33.049,1.0092,100774.35
0.9927,-0.0425,-0.2939,-11.524,-9.329,20.61,1.0362,100774.69
1.0063,-0.0347,-0.3359,-16.037,-23.171,10.0,1.0615,100774.7
1.0938,-0.0161,-0.3398,-9.329,-17.561,5.244,1.1454,100774.09
1.1421,-0.0229,-0.2251,7.805,-18.171,8.659,1.1643,100774.0
1.0337,-0.0239,-0.2231,13.537,-17.744,18.72,1.0578,100773.95
0.981,-0.061,-0.1987,23.72,-9.573,8.598,1.0027,100773.39
0.999,0.0317,-0.0498,35.305,-4.634,-8.537,1.0008,100773.11
0.8638,0.1006,0.0391,33.476,6.707,-0.976,0.8705,100773.65
0.7163,0.0972,-0.0288,30.976,16.951,-4.512,0.7234,100774.07
0.8042,0.0762,-0.0332,35.915,22.988,-19.207,0.8085,100773.12
0.8994,0.0361,-0.1274,27.927,34.085,-11.829,0.9091,100773.55
0.9111,0.0181,-0.1738,19.024,31.402,-2.378,0.9277,100773.51
0.9224,-0.0356,-0.2124,10.732,53.476,-2.317,0.9472,100773.86
1.0625,-0.0435,-0.0894,10.671,53.841,-16.585,1.0671,100773.73
1.0039,0.0244,-0.2339,-4.695,6.463,-15.061,1.0311,100775.01
0.9888,0.0684,-0.3062,-11.037,-13.78,-11.585,1.0373,100774.85
1.0703,0.0815,-0.3574,-16.22,-16.341,-8.537,1.1314,100775.35
1.1992,0.0522,-0.3325,-12.012,-32.439,-10.671,1.2456,100775.73
1.3052,0.0142,-0.1899,-9.695,-56.341,-9.756,1.319,100774.77
1.125,0.0225,-0.188,-23.476,-79.939,1.524,1.1408,100775.32
1.0073,0.0596,-0.1958,-30.488,-65.915,6.159,1.0279,100776.33
1.1606,-0.0698,-0.0967,-25.732,-10.854,-9.146,1.1668,100775.6
1.0278,-0.127,0.062,-7.439,9.268,-4.512,1.0375,100775.3
0.7158,-0.0718,-0.0166,-11.159,0.244,16.28,0.7196,100775.07
0.7056,-0.0933,-0.0444,-23.537,15.732,11.402,0.7131,100774.66
0.8447,-0.1421,-0.0186,-34.756,21.768,-0.488,0.8568,100773.34
0.8306,-0.1616,-0.1118,-44.939,25.366,-2.561,0.8535,100773.36
0.8408,-0.103,-0.2378,-41.829,18.049,-5.854,0.8799,100773.73
0.9033,-0.0137,-0.2954,-29.695,8.049,-4.878,0.9505,100773.62
1.0352,0.0156,-0.3428,-21.829,13.598,3.293,1.0905,100772.94
1.0884,0.0088,-0.3813,-17.561,10.854,12.378,1.1533,100773.32
1.0547,0.0723,-0.4277,-3.841,-8.963,13.902,1.1404,100773.57
1.0532,0.1138,-0.4033,13.537,-6.159,2.805,1.1335,100774.42
1.1763,0.1152,-0.2363,25.427,3.11,-7.134,1.2053,100774.8
1.1455,0.1011,-0.144,30.427,-13.11,-2.5,1.1589,100774.2
0.9951,0.0889,-0.1528,26.463,-12.622,6.646,1.0107,100773.52
1.0659,0.0415,-0.0649,32.988,-7.744,5.305,1.0687,100774.88
1.0146,0.0889,0.0244,47.439,-6.829,7.744,1.0188,100775.78
0.9233,0.1416,0.0347,50.366,15.549,7.622,0.9348,100775.59
0.8086,0.1118,-0.04,49.817,22.927,7.866,0.8173,100776.21
0.7549,0.0386,-0.125,44.146,27.256,3.354,0.7661,100776.31
0.7871,0.0166,-0.1665,30.0,21.22,-8.049,0.8047,100775.88
0.8789,0.0078,-0.2319,13.232,13.049,-13.72,0.909,100775.56
0.9712,-0.0049,-0.3198,3.841,4.451,-15.061,1.0225,100775.45
0.9946,-0.021,-0.3101,-0.915,-3.11,-11.585,1.042,100775.73
1.0449,-0.0366,-0.2876,-7.256,-4.817,-6.89,1.0844,100775.81
1.0776,-0.0171,-0.2896,-12.622,-14.756,-1.341,1.116,100776.27
1.0981,-0.0864,-0.2549,-19.268,-21.829,5.0,1.1306,100776.94
1.1104,-0.1367,-0.1953,-27.561,-25.244,2.439,1.1357,100777.1
1.0693,-0.0571,-0.1641,-26.89,-27.744,-2.012,1.0834,100776.84
1.1523,-0.0322,-0.0396,-26.768,2.439,-3.963,1.1535,100776.66
1.1489,-0.0493,0.0015,-42.134,2.378,-8.78,1.15,100776.88
0.8555,-0.0283,-0.0352,-38.78,-2.805,2.927,0.8567,100776.18
0.7002,-0.1021,-0.0464,-34.329,25.549,20.061,0.7091,100776.65
0.7544,-0.1841,0.0757,-28.598,34.024,13.902,0.7802,100776.26
0.9082,-0.1509,0.0532,-30.427,24.756,-1.646,0.9222,100775.34
0.9771,-0.0635,-0.1606,-33.476,20.976,-1.159,0.9922,100775.41
0.9761,-0.0581,-0.249,-23.902,27.439,7.561,1.009,100776.21
0.9956,-0.0474,-0.1958,-11.22,26.646,9.573,1.0158,100776.19
0.9854,-0.0049,-0.2139,-11.22,11.951,7.866,1.0083,100775.43
0.9854,-0.0039,-0.2529,-10.366,5.671,7.195,1.0173,100776.22
1.0068,-0.002,-0.2783,-3.659,3.78,8.049,1.0446,100777.19
1.126,0.0195,-0.2437,8.537,-2.744,2.622,1.1522,100777.57
1.2554,0.042,-0.1875,17.988,-12.683,-1.89,1.27,100777.22
1.1895,0.0479,-0.1445,26.829,-11.098,7.561,1.1992,100777.45
1.0542,0.0454,-0.0396,35.488,-6.585,14.451,1.0559,100776.91
1.1064,0.0308,0.0693,36.829,-20.549,12.195,1.109,100776.46
1.0059,0.0928,0.0542,45.671,-17.134,24.329,1.0116,100776.27
0.8516,0.1333,0.103,67.317,22.988,35.732,0.8681,100776.52
0.7847,0.1099,0.1216,79.695,14.024,19.939,0.8016,100776.32
0.8169,0.0337,0.043,60.915,14.39,-0.183,0.8187,100776.55
0.8145,-0.0225,-0.1172,30.183,7.561,-12.012,0.8231,100776.36
0.8267,-0.0693,-0.1792,21.098,-1.585,-20.183,0.8487,100776.19
0.8926,-0.1167,-0.1914,18.537,6.037,-21.463,0.9203,100776.43
0.8887,-0.1714,-0.2427,13.354,7.561,-11.829,0.937,100776.87
0.9756,-0.2275,-0.2134,10.915,7.134,2.317,1.0242,100777.05
1.167,-0.2827,-0.1436,2.622,21.524,13.963,1.2093,100776.85
1.2441,-0.2339,-0.1567,-25.305,12.378,-0.976,1.2756,100776.44
1.2754,-0.1167,-0.1899,-55.244,-36.829,-26.402,1.2947,100776.62
1.231,-0.0415,-0.1216,-65.366,-56.22,-25.427,1.2376,100776.4
1.2104,-0.0103,-0.0479,-70.549,-53.354,-16.951,1.2114,100775.97
1.1108,-0.1143,-0.002,-73.11,-37.5,-12.927,1.1167,100776.42
0.9082,-0.1274,0.0464,-43.78,-17.012,2.927,0.9183,100776.26
0.6831,-0.1489,0.0264,-25.915,-0.244,22.927,0.6996,100775.88
0.624,-0.167,0.0898,-24.207,9.634,16.585,0.6522,100776.22
0.7515,-0.1709,0.0537,-41.585,11.524,1.89,0.7725,100775.86
0.8135,-0.1509,-0.1328,-49.756,14.268,1.524,0.8379,100776.2
0.8984,-0.124,-0.1646,-38.72,28.598,1.402,0.9218,100776.09
1.0249,-0.0752,-0.1919,-32.195,25.854,-2.256,1.0454,100775.52
1.0757,-0.0239,-0.2979,-34.878,19.451,-1.341,1.1164,100775.33
1.0449,0.0107,-0.353,-28.476,7.012,-1.829,1.103,100775.05
1.064,0.0171,-0.3149,-14.39,-0.427,-2.012,1.1097,100775.59
1.1753,0.0078,-0.2812,-1.585,-1.829,-2.256,1.2085,100775.74
1.2271,0.0142,-0.229,10.915,-10.793,-4.817,1.2483,100775.87
1.1323,0.0757,-0.1548,23.902,-17.988,-7.012,1.1454,100776.09
1.1172,0.0371,-0.0283,33.171,-3.659,-8.659,1.1182,100776.12
1.1636,0.0635,0.0518,42.561,-13.598,-9.512,1.1665,100775.91
0.98,0.1421,0.001,47.5,-17.378,1.768,0.9902,100775.62
0.8027,0.1406,0.0474,54.024,6.707,11.402,0.8163,100774.79
0.7666,0.0806,0.1025,55.793,15.915,7.866,0.7776,100775.05
0.7583,0.0479,0.0166,42.561,15.793,-1.098,0.76,100774.73
0.9458,-0.0537,-0.1489,27.012,29.207,-11.768,0.959,100775.97
1.0117,-0.0684,-0.2261,11.28,21.951,-9.512,1.0389,100775.93
1.0493,-0.0693,-0.2988,-10.305,-3.72,-12.5,1.0932,100776.16
1.0938,-0.0776,-0.3169,-23.354,-19.512,-7.927,1.1414,100775.33
1.1719,-0.1372,-0.272,-33.841,-22.561,6.159,1.2108,100775.71
1.1865,-0.2163,-0.1948,-41.463,-30.122,12.073,1.2217,100776.24
1.1509,-0.1548,-0.1064,-41.524,-32.439,7.073,1.1661,100776.62
1.1646,-0.0488,-0.0635,-51.829,-16.463,1.951,1.1673,100776.94
1.2412,-0.0415,-0.0049,-70.0,-7.5,-12.256,1.2419,100776.3
0.9839,-0.0815,0.0576,-59.207,-29.207,-8.659,0.9889,100776.95
0.7036,-0.1216,0.0371,-44.634,-5.732,12.134,0.715,100777.3
0.644,-0.1724,0.1138,-45.366,21.951,11.463,0.6763,100776.33
0.748,-0.1411,0.0967,-56.28,14.756,-8.11,0.7674,100776.47
0.8828,-0.0811,-0.043,-61.037,16.707,-10.793,0.8876,100776.45
0.9336,-0.0566,-0.1235,-51.463,21.646,-0.61,0.9434,100775.92
0.9746,-0.0186,-0.1748,-43.537,18.902,2.439,0.9903,100775.3
1.0459,0.0601,-0.2373,-38.78,19.939,3.232,1.0742,100775.22
1.0425,0.1167,-0.2671,-31.22,4.817,4.573,1.0825,100775.88
1.0317,0.145,-0.2944,-22.317,-3.11,6.768,1.0827,100775.77
1.0718,0.1538,-0.2798,-4.878,0.488,7.378,1.1183,100775.31
1.1509,0.1572,-0.2119,13.476,-3.415,1.159,1.1807,100775.45
1.1367,0.1963,-0.1709,21.341,-14.512,-3.841,1.1661,100776.05
1.0669,0.2197,-0.0859,25.549,-7.195,-1.28,1.0927,100775.41
1.0874,0.104,0.1064,37.195,-11.768,8.841,1.0975,100775.73
0.9043,0.1025,0.0967,50.732,3.049,17.622,0.9152,100775.39
0.7852,0.1196,0.0918,60.427,15.061,16.28,0.7995,100775.29
0.8018,0.0957,0.0864,60.488,11.341,5.061,0.8121,100775.84
0.8481,0.085,0.0371,51.463,12.805,-3.293,0.8532,100775.5
0.8789,0.0547,0.0029,41.463,14.939,-5.61,0.8806,100774.87
0.9102,0.0015,-0.0298,38.11,13.841,-8.78,0.9106,100775.51
0.9434,-0.0029,-0.0957,42.927,16.524,-9.939,0.9482,100775.39
0.9551,-0.022,-0.1821,44.207,10.244,-2.927,0.9725,100776.42
0.9761,-0.1133,-0.2153,36.22,4.39,4.634,1.0059,100776.57
1.0596,-0.1636,-0.2612,21.22,-0.061,3.232,1.1035,100777.3
1.1743,-0.1519,-0.2896,4.146,-7.134,-2.622,1.219,100776.77
1.2485,-0.1553,-0.272,-10.915,-12.927,-4.634,1.2872,100776.11
1.2637,-0.1235,-0.2764,-14.634,-35.244,-7.378,1.2994,100776.1
1.1621,-0.0762,-0.1768,-7.439,-45.183,-2.866,1.1779,100777.23
1.1343,-0.0811,0.0249,-3.78,-9.085,6.89,1.1374,100777.45
1.1265,-0.0898,0.1348,-11.707,-4.085,7.134,1.138,100776.23
0.8608,-0.1245,0.0698,-22.073,-15.244,16.707,0.8726,100776.09
0.6748,-0.2251,0.1157,-36.585,-0.122,18.963,0.7207,100776.21
0.7085,-0.2837,0.1851,-54.268,11.89,0.549,0.7853,100776.19
0.8828,-0.1978,0.0659,-72.927,4.024,-23.354,0.9071,100775.68
0.9448,-0.1016,-0.0977,-70.793,-4.39,-22.317,0.9553,100776.53
0.936,-0.1025,-0.125,-59.329,7.622,-7.012,0.9499,100776.2
0.9497,-0.085,-0.1792,-54.146,2.805,-1.098,0.9702,100776.68
0.9932,-0.0356,-0.2622,-48.293,-3.476,0.427,1.0278,100777.04
0.9932,0.0444,-0.3325,-38.902,-7.927,2.805,1.0483,100776.81
1.0093,0.104,-0.3296,-26.159,-6.463,6.037,1.0668,100776.64
1.0405,0.1343,-0.2646,-14.695,-5.183,7.134,1.082,100776.29
1.0742,0.1504,-0.187,-7.195,-8.476,4.512,1.1007,100776.49
1.0449,0.1641,-0.1548,-3.415,-15.793,4.451,1.069,100777.16
1.0,0.209,-0.1377,-0.976,-9.634,4.085,1.0308,100776.8
1.0723,0.1875,-0.1064,-1.585,7.012,-1.098,1.0937,100776.51
1.1362,0.1265,-0.0269,8.11,3.963,-2.5,1.1436,100775.93
0.939,0.1274,-0.0239,26.89,-7.134,3.415,0.9479,100775.73
0.8228,0.123,0.0571,49.268,5.915,5.732,0.8339,100776.07
0.8223,0.1187,0.0742,57.683,16.037,3.659,0.8341,100775.85
0.8262,0.1143,-0.0254,54.207,19.39,4.268,0.8344,100775.57
0.8379,0.1006,-0.0747,47.927,27.744,4.085,0.8472,100775.71
0.9082,0.0488,-0.0898,38.537,25.732,-4.085,0.9139,100775.34
0.9458,0.0103,-0.1519,31.22,14.329,-8.659,0.958,100776.54
0.9634,-0.0259,-0.2358,28.72,10.732,-6.402,0.9922,100776.7
1.0234,-0.0713,-0.2393,26.341,14.085,-2.073,1.0534,100776.81
1.103,-0.0752,-0.248,20.915,2.134,0.305,1.1331,100776.53
1.1714,-0.083,-0.2622,8.354,-3.78,5.244,1.2032,100776.95
1.1816,-0.1436,-0.229,-7.683,-9.573,7.866,1.2122,100776.52
1.1777,-0.1816,-0.1812,-16.159,-35.366,2.012,1.2053,100776.83
1.1074,-0.21,-0.145,-18.72,-32.683,0.915,1.1364,100776.31
1.1284,-0.1895,-0.061,-20.061,-15.305,-7.317,1.1458,100775.66
1.1377,-0.1006,0.0361,-28.293,-16.28,-14.695,1.1427,100775.79
0.9307,-0.0659,-0.0405,-35.488,-27.561,-2.439,0.9339,100775.64
0.7881,-0.1235,0.0068,-34.146,1.646,11.768,0.7977,100775.77
0.7798,-0.1719,0.0762,-42.012,21.524,10.366,0.8021,100775.76
0.8472,-0.1411,0.0317,-50.183,23.659,1.098,0.8594,100775.62
0.9165,-0.1172,-0.02,-42.927,18.902,-2.561,0.9242,100775.52
0.9268,-0.1123,-0.0342,-33.354,17.988,-0.549,0.9342,100775.57
0.9092,-0.0757,-0.1309,-29.146,8.963,1.89,0.9217,100776.11
0.9248,-0.0566,-0.2075,-21.341,-1.28,-1.341,0.9495,100775.77
0.9834,-0.0371,-0.2388,-14.756,-3.841,-7.927,1.0127,100775.62
1.0132,0.0347,-0.2939,-9.39,-13.415,-9.024,1.0555,100776.05
1.0444,0.0659,-0.3345,-1.951,-18.354,-3.78,1.0987,100775.83
1.1577,0.0405,-0.209,9.146,-9.573,0.915,1.1771,100776.93
1.1631,0.0508,-0.1631,7.805,-14.634,3.841,1.1756,100776.9
1.0576,0.1025,-0.2339,3.963,-20.122,3.354,1.088,100775.87
0.9565,0.1367,-0.2109,10.671,-12.744,-0.915,0.989,100775.98
1.0835,0.0732,-0.0493,24.939,-12.5,-20.366,1.0871,100776.16
1.1309,0.0918,0.0391,25.427,-35.305,-23.415,1.1353,100776.3
0.8809,0.1382,-0.1138,19.939,-40.732,-3.72,0.8989,100776.17
0.7095,0.1587,-0.1484,42.622,-0.61,6.768,0.742,100775.7
0.7505,0.1206,-0.0493,70.061,37.256,8.72,0.7617,100776.34
0.8594,0.0205,0.0093,73.232,53.78,15.0,0.8597,100775.97
0.8364,-0.0767,-0.0439,56.768,60.732,20.915,0.8411,100775.55
0.8604,-0.0962,-0.1133,45.61,59.39,9.878,0.8731,100776.47
0.9473,-0.0566,-0.1753,26.829,37.317,-12.439,0.965,100776.42
0.9863,-0.0273,-0.2773,-3.841,-1.707,-30.244,1.0249,100777.02
0.9824,0.0044,-0.3579,-25.244,-21.098,-30.183,1.0456,100776.59
1.0737,0.0356,-0.3965,-29.329,-26.341,-20.427,1.1451,100777.14
1.25,-0.0508,-0.3154,-25.305,-21.402,-10.915,1.2902,100777.68
1.2808,-0.1519,-0.2144,-18.476,-35.61,-13.659,1.3074,100778.2
1.2295,-0.0884,-0.1831,-9.817,-42.317,-11.22,1.2462,100777.97
1.1846,-0.0337,-0.2036,-10.732,-23.293,8.354,1.2024,100777.45
1.231,-0.0195,-0.0698,-30.305,-11.341,3.963,1.2331,100777.16
1.0498,-0.0571,0.0161,-39.024,-35.122,-2.561,1.0515,100776.48
0.7031,-0.0723,-0.0635,-34.817,-30.976,11.707,0.7097,100776.81
0.5854,-0.105,-0.0132,-33.476,-2.561,15.671,0.5949,100776.55
0.644,-0.0991,0.1001,-42.927,9.756,2.927,0.6593,100776.02
0.8379,-0.0801,0.105,-59.512,21.098,-10.854,0.8482,100776.09
0.895,-0.0708,-0.0708,-65.488,25.366,-13.354,0.9006,100775.94
0.7808,-0.0815,-0.2349,-50.915,47.134,1.585,0.8194,100776.17
0.9185,-0.0967,-0.1904,-39.512,84.573,11.037,0.943,100776.98
1.0776,0.0034,-0.2554,-35.305,46.159,-0.061,1.1075,100776.82
1.1382,0.0781,-0.2979,-32.073,2.073,-4.268,1.1791,100775.97
1.1724,0.1689,-0.3931,-22.012,-8.537,3.049,1.248,100776.44
1.2373,0.2251,-0.2808,7.927,-11.707,11.341,1.2886,100776.8
1.2236,0.2407,-0.1182,17.866,-18.537,12.5,1.2527,100777.18
1.0884,0.2383,-0.1191,10.0,-24.024,6.402,1.1205,100776.73
1.0337,0.2456,-0.1934,-0.122,-66.829,-5.0,1.0799,100776.66
0.9966,0.1689,-0.2334,2.866,-53.841,-14.268,1.0374,100776.24
1.1919,0.0757,0.0015,19.085,-7.744,-28.537,1.1943,100776.78
0.9688,0.1592,-0.0806,31.159,-76.037,-26.341,0.985,100776.33
0.6284,0.1992,-0.1343,66.707,-19.024,6.037,0.6728,100776.77
0.7368,0.1177,0.001,68.11,7.561,-5.549,0.7462,100776.95
0.793,0.084,-0.0771,40.732,10.244,-10.305,0.8011,100776.95
0.7944,0.0659,-0.208,18.11,20.549,-10.0,0.8239,100777.07
0.8662,0.0044,-0.3306,4.329,28.476,-11.524,0.9272,100777.05
0.9502,-0.041,-0.5039,1.341,22.195,-12.744,1.0763,100776.5
0.957,-0.0215,-0.522,4.268,18.232,-14.695,1.0903,100776.38
1.0205,-0.0151,-0.4756,-6.341,5.549,-13.11,1.126,100775.91
1.1162,-0.02,-0.5161,-19.817,-17.866,-6.646,1.2299,100776.05
1.1108,-0.0352,-0.4692,-21.463,-26.463,1.646,1.2064,100775.78
1.0767,-0.0396,-0.3638,-22.988,-27.195,6.463,1.1371,100776.11
1.0352,0.0293,-0.3032,-27.012,-13.841,14.146,1.0791,100775.7
1.1865,0.0186,-0.1514,-39.39,36.037,7.317,1.1963,100775.91
1.1348,0.0361,-0.0361,-43.841,1.951,-7.134,1.1359,100776.05
0.7583,0.0449,-0.1318,-42.195,-30.244,6.524,0.771,100776.27
0.7344,-0.0605,-0.1182,-49.451,-5.061,12.378,0.7463,100776.34
0.8237,-0.0771,-0.0981,-56.951,-25.366,-1.829,0.8331,100776.64
0.8452,0.0273,-0.2124,-57.5,-38.354,-2.012,0.8719,100776.98
0.856,0.0923,-0.3599,-57.439,-12.012,17.134,0.9331,100776.74
0.9658,0.0894,-0.4717,-58.293,2.683,28.902,1.0786,100776.2
0.8833,0.0601,-0.5039,-48.171,-26.159,25.061,1.0187,100776.17
0.877,0.1084,-0.5596,-31.646,-39.817,17.5,1.0459,100776.4
0.8096,0.1616,-0.6001,-10.915,-22.439,14.695,1.0206,100777.42
0.8633,0.2017,-0.5161,9.878,-7.073,6.646,1.0258,100777.84
0.9966,0.207,-0.3979,21.28,-2.317,0.671,1.0929,100776.92
0.9863,0.248,-0.3813,28.11,-1.829,0.915,1.0862,100777.35
0.9917,0.2466,-0.3022,35.976,20.793,-2.134,1.0657,100777.05
1.1162,0.2114,-0.1909,46.585,20.366,-12.683,1.152,100777.2
1.0063,0.2407,-0.1934,55.0,10.488,-12.134,1.0526,100777.18
0.7944,0.2729,-0.2036,63.841,19.817,-7.805,0.8643,100776.91
0.7881,0.2285,-0.1489,71.402,27.256,-7.256,0.834,100776.72
0.8569,0.144,-0.2026,64.085,30.244,-9.634,0.8923,100777.94
0.8486,0.1045,-0.2944,52.195,26.098,-12.988,0.9043,100777.37
0.8105,0.0806,-0.2954,42.5,18.963,-11.768,0.8665,100776.69
0.8257,0.0425,-0.3516,33.11,12.988,-9.756,0.8984,100777.03
0.8604,0.0005,-0.3789,32.683,15.305,-8.659,0.9401,100776.33
0.9272,-0.0166,-0.3779,29.512,10.61,-7.988,1.0014,100776.88
0.9854,-0.0078,-0.4351,11.829,-6.524,-2.378,1.0772,100777.31
1.1445,-0.0752,-0.4385,-7.378,-7.988,3.72,1.228,100777.77
1.1787,-0.1094,-0.4307,-24.512,-28.659,1.768,1.2597,100777.73
1.0913,-0.0762,-0.3901,-31.585,-42.622,2.012,1.1614,100777.19
1.104,-0.0425,-0.2495,-33.659,-33.171,5.915,1.1326,100776.81
1.2017,-0.0083,-0.1719,-51.463,-23.72,-5.915,1.2139,100777.38
0.9492,0.0073,-0.1621,-53.293,-43.902,-6.524,0.963,100777.58
0.6348,-0.0322,-0.1724,-38.293,-27.073,13.598,0.6585,100777.34
0.6973,-0.1089,-0.1479,-33.902,21.28,20.183,0.7211,100777.41
0.8867,-0.0986,-0.1821,-37.317,32.012,5.122,0.9106,100777.58
0.8716,0.0186,-0.3267,-40.0,3.78,-5.549,0.931,100777.1
0.8818,0.0952,-0.436,-39.878,6.037,-1.098,0.9883,100776.87
0.9189,0.0845,-0.5015,-36.646,24.085,12.988,1.0503,100777.45
0.895,0.0576,-0.5117,-25.305,11.829,21.402,1.0326,100777.86
0.8452,0.0669,-0.5488,-12.988,-6.951,19.573,1.01,100776.95
0.8965,0.0483,-0.5781,-7.5,2.134,10.122,1.0678,100777.38
0.9399,0.0879,-0.5454,3.415,-3.598,-2.378,1.0903,100777.2
1.0298,0.1421,-0.4629,15.183,-4.39,-11.402,1.1379,100777.42
1.1255,0.1636,-0.3813,20.488,-5.061,-14.634,1.1995,100777.1
1.0356,0.1802,-0.3838,17.805,-18.171,-15.0,1.1191,100777.87
1.0244,0.1172,-0.335,17.073,-11.341,-21.402,1.0841,100777.2
1.0674,0.1167,-0.2778,29.573,-18.415,-28.537,1.1091,100777.08
0.8281,0.2241,-0.2437,48.415,-19.207,-17.073,0.8918,100777.22
0.6748,0.2432,-0.1787,59.024,10.549,-7.134,0.7392,100777.21
0.8193,0.1831,-0.1406,55.488,23.78,-16.524,0.8512,100777.45
0.8257,0.1768,-0.2544,35.61,11.037,-19.268,0.8819,100777.52
0.7515,0.1743,-0.3672,20.061,10.61,-12.378,0.8543,100778.16
0.7876,0.147,-0.3623,17.256,24.268,-6.098,0.8793,100777.43
0.8042,0.1162,-0.4043,12.988,16.585,-4.939,0.9076,100777.49
0.8398,0.0967,-0.4458,7.744,13.171,-4.207,0.9557,100777.77
0.9224,0.1226,-0.4839,2.866,5.427,-2.561,1.0488,100778.38
0.9258,0.0996,-0.5195,-0.366,13.232,9.024,1.0663,100778.33
1.0425,0.0518,-0.5186,-8.659,20.244,10.0,1.1655,100777.43
1.1821,0.0176,-0.5034,-18.11,-11.402,1.159,1.285,100776.76
1.0928,0.0068,-0.4565,-20.244,-31.28,5.915,1.1843,100776.88
1.002,0.0269,-0.4014,-24.878,-20.366,18.963,1.0797,100776.59
0.9629,0.0151,-0.4209,-33.841,2.5,15.244,1.051,100777.0
1.1313,-0.0195,-0.1987,-25.427,-6.22,-12.744,1.1488,100777.19
0.8472,-0.0444,-0.1152,-27.5,-11.22,4.268,0.8561,100777.57
0.6504,-0.1133,-0.1802,-33.049,19.939,17.256,0.6843,100777.48
0.7993,-0.1255,-0.103,-32.988,22.5,-0.366,0.8156,100777.8
0.8564,-0.0322,-0.1836,-43.537,5.244,-6.22,0.8765,100778.54
0.8438,0.0327,-0.3931,-44.451,8.659,2.805,0.9314,100778.23
0.9106,0.0493,-0.4214,-26.829,17.073,10.061,1.0046,100778.62
0.9756,0.0918,-0.4043,-18.232,16.951,17.378,1.06,100778.54
0.936,0.1289,-0.4033,-10.976,8.171,23.902,1.0273,100777.72
0.9419,0.1113,-0.377,-2.927,7.439,21.707,1.0206,100777.36
0.9697,0.1328,-0.3833,5.122,1.585,10.0,1.0512,100777.46
1.0498,0.1772,-0.3389,13.354,3.232,-3.659,1.1173,100776.32
1.083,0.1909,-0.2603,19.146,2.561,-8.232,1.1301,100776.07
0.9492,0.1753,-0.1973,22.073,-1.159,-3.232,0.9852,100775.52
1.0,0.104,-0.0698,31.951,19.878,-8.537,1.0078,100776.09
1.1504,0.0796,-0.02,34.817,35.122,-11.829,1.1533,100776.77
0.9312,0.1685,-0.1045,38.659,23.72,2.927,0.952,100777.04
0.7905,0.208,-0.0923,48.171,28.72,6.28,0.8226,100777.24
0.8511,0.1572,-0.0581,46.341,33.415,-5.976,0.8674,100776.77
0.9214,0.1377,-0.1064,34.573,31.829,-13.293,0.9377,100776.66
0.8872,0.1333,-0.2178,21.89,32.805,-5.366,0.9232,100776.58
0.9209,0.1006,-0.2681,26.585,29.146,-2.317,0.9644,100776.5
0.9741,0.0811,-0.2773,30.854,23.963,0.61,1.0161,100775.86
0.9888,0.0679,-0.3164,21.768,11.098,5.183,1.0404,100776.83
0.9971,0.082,-0.3672,11.585,-7.927,5.732,1.0657,100776.57
1.0342,0.0635,-0.3467,2.5,-16.341,5.122,1.0926,100776.26
1.125,-0.0088,-0.2812,-4.573,-28.476,0.183,1.1597,100776.65
1.1948,-0.0439,-0.2246,-8.171,-37.866,-5.305,1.2165,100776.95
1.1216,0.0039,-0.1714,-3.841,-42.378,1.768,1.1346,100777.17
1.0659,0.0449,-0.1538,-12.988,-20.793,5.976,1.0779,100777.2
1.2295,0.0142,-0.0049,-30.366,-5.976,-19.085,1.2296,100777.0
1.0278,-0.0317,0.042,-36.951,-35.915,-14.329,1.0292,100777.7
0.7554,-0.0732,-0.0806,-41.098,-28.659,11.28,0.7632,100777.73
0.7168,-0.1157,-0.1133,-32.927,-1.829,13.902,0.7349,100777.27
0.7612,-0.1045,-0.0381,-22.5,16.159,5.305,0.7693,100777.16
0.8306,-0.0508,-0.0459,-22.561,9.39,-1.463,0.8334,100776.94
0.8481,-0.019,-0.1768,-22.378,1.829,1.28,0.8666,100777.03
0.9316,0.0234,-0.2651,-12.012,16.524,7.317,0.9689,100776.75
1.0078,0.0693,-0.3242,-6.28,11.524,8.598,1.0609,100777.4
1.0029,0.082,-0.4175,-8.902,-3.902,9.695,1.0894,100777.26
0.9814,0.0776,-0.478,-13.415,-1.098,10.915,1.0944,100777.66
0.9937,0.0503,-0.4512,-7.5,5.305,4.39,1.0924,100777.45
1.0654,0.0234,-0.3022,2.439,3.537,-6.951,1.1077,100777.42
1.084,0.0562,-0.2241,-1.159,-14.634,-11.037,1.1083,100777.16
1.0747,0.0791,-0.2271,-7.622,-31.28,-12.622,1.1013,100777.2
0.9824,0.1162,-0.2461,-12.378,-33.171,-4.939,1.0194,100776.99
0.9253,0.1245,-0.3057,1.707,-14.207,-3.415,0.9824,100776.57
1.0728,0.0752,-0.1147,28.598,2.012,-17.439,1.0815,100776.89
1.0195,0.1138,-0.1016,26.28,0.793,-4.39,1.0309,100776.51
0.7578,0.1704,-0.127,32.561,0.122,18.11,0.787,100776.12
0.752,0.1519,-0.1514,44.817,22.866,7.988,0.7819,100776.08
0.9209,0.1509,-0.0859,53.963,28.171,-13.841,0.9371,100775.68
0.9839,0.1509,-0.1016,42.622,28.598,-10.732,1.0006,100775.97
0.9014,0.1294,-0.1992,30.305,34.512,1.829,0.9321,100776.94
0.8335,0.085,-0.2393,31.829,41.341,2.866,0.8713,100776.68
0.8564,0.0503,-0.1953,32.988,42.439,-0.61,0.8799,100776.23
0.9316,0.021,-0.248,20.244,28.11,-1.829,0.9643,100777.26
1.0005,-0.001,-0.3164,8.78,18.537,1.098,1.0493,100778.02
1.0469,0.0156,-0.3726,-0.793,-4.451,0.915,1.1113,100778.5
1.0815,0.0308,-0.3877,-7.561,-19.634,-0.183,1.1493,100778.47
1.1348,0.0215,-0.3032,-7.256,-17.927,0.305,1.1748,100778.1
1.1934,0.0249,-0.1943,-6.159,-30.915,-1.22,1.2093,100777.56
1.147,0.0435,-0.1865,-15.732,-41.768,7.378,1.1629,100777.41
0.9302,-0.0039,-0.229,-33.537,-29.756,20.122,0.958,100777.55
0.9688,0.021,-0.251,-54.573,-27.317,-8.415,1.001,100776.4
1.0234,0.0083,-0.1172,-55.366,-67.927,-46.098,1.0302,100776.41
0.9419,0.0083,-0.1016,-36.646,-74.146,-33.049,0.9474,100776.43
0.7935,-0.001,-0.0713,-21.22,-2.378,11.037,0.7967,100777.06
0.749,-0.0225,-0.2148,-21.585,37.866,36.707,0.7796,100776.66
0.7056,-0.0659,-0.147,5.0,37.683,30.305,0.7237,100777.24
0.936,-0.1113,-0.0991,21.098,74.939,1.951,0.9478,100777.06
1.1616,-0.0923,-0.0054,24.695,75.732,-3.963,1.1653,100777.91
1.0464,0.0054,-0.1895,0.244,61.402,17.256,1.0634,100777.43
0.9917,0.064,-0.4028,-28.232,38.049,9.207,1.0723,100777.43
0.957,0.0557,-0.3945,-38.659,7.683,-8.537,1.0367,100777.44
0.8975,0.0547,-0.2612,-20.0,-6.89,-14.939,0.9363,100777.31
0.8911,0.0625,-0.271,-4.573,-9.878,-18.11,0.9335,100777.47
0.9863,0.0645,-0.2837,15.183,5.488,-18.11,1.0283,100778.48
1.1084,0.0635,-0.2749,29.573,11.585,-15.671,1.1437,100778.86
1.1631,0.0503,-0.2988,33.537,2.561,-10.183,1.2019,100778.4
1.1118,0.0796,-0.29,40.732,-17.927,-3.841,1.1518,100778.19
1.04,0.1245,-0.2886,44.878,-20.122,0.488,1.0865,100778.9
1.1655,0.0562,-0.1548,45.427,11.951,1.89,1.1771,100777.82
1.1816,-0.0269,0.0571,43.049,5.0,-5.61,1.1833,100776.65
0.9824,0.0918,0.1343,55.183,-30.976,-7.5,0.9958,100777.24
0.8022,0.2109,0.1543,44.451,-29.39,6.646,0.8437,100777.7
0.7969,0.2095,-0.1855,4.878,1.341,5.671,0.8446,100778.18
0.8516,0.1431,-0.1562,10.305,-2.744,-15.366,0.8775,100778.04
0.8633,0.124,-0.1167,10.549,-15.183,-26.22,0.8799,100777.81
0.8906,0.1006,-0.1387,5.244,3.598,-21.768,0.907,100777.03
0.9185,0.0942,-0.2485,7.866,15.732,-12.439,0.9561,100776.94
0.8481,0.0571,-0.2339,20.366,12.744,1.646,0.8817,100777.12
0.8149,0.022,-0.2227,22.683,21.28,6.098,0.8451,100775.9
0.9399,0.0234,-0.2627,15.183,29.329,3.841,0.9762,100776.31
1.0151,0.0356,-0.3413,-2.256,9.146,5.183,1.0716,100776.9
1.0654,0.061,-0.4248,-15.183,-9.451,3.232,1.1486,100777.7
1.1396,0.0771,-0.4033,-19.39,-18.537,1.89,1.2114,100776.93
1.0547,0.0649,-0.3115,-25.671,-36.524,6.707,1.1016,100777.23
1.0518,0.0439,-0.2397,-26.341,-31.829,4.207,1.0796,100776.21
1.0645,0.0679,-0.1616,-20.244,-30.427,2.073,1.0788,100775.44
1.0547,0.0981,-0.2075,-33.78,-19.146,-2.805,1.0794,100775.62
1.1924,0.0957,-0.1279,-43.415,-7.622,-21.585,1.203,100775.0
1.1001,0.0435,-0.041,-43.72,-37.012,-15.061,1.1017,100775.77
0.7891,0.0049,-0.1392,-40.671,-30.244,20.976,0.8013,100775.23
0.7578,-0.0586,-0.1675,-29.39,9.512,30.122,0.7783,100775.83
0.9219,-0.1172,-0.1162,-25.244,-8.171,12.866,0.9365,100776.9
0.9097,-0.0942,-0.144,-32.073,-32.622,10.427,0.9258,100776.6
0.8237,-0.0762,-0.2236,-35.793,4.573,19.085,0.8569,100777.09
0.7793,-0.0571,-0.2817,-32.683,19.39,13.415,0.8306,100776.24
0.8013,0.0103,-0.2939,-23.049,3.354,1.646,0.8535,100776.23
0.8438,0.0757,-0.3511,-20.976,14.024,0.183,0.917,100775.98
0.9028,0.083,-0.3638,-19.939,26.89,0.244,0.9769,100775.91
0.9214,0.0762,-0.3921,-21.341,14.329,-3.049,1.0042,100776.97
0.9902,0.0811,-0.4277,-12.622,14.146,-7.317,1.0817,100776.67
1.0923,0.0918,-0.3843,1.098,16.341,-9.085,1.1615,100776.8
1.1284,0.0977,-0.27,10.244,6.768,-7.988,1.1644,100777.52
1.0815,0.1084,-0.2305,16.037,-7.683,-4.756,1.1111,100776.72
1.0659,0.1206,-0.2461,29.573,4.756,0.244,1.1006,100777.23
1.147,0.0942,-0.0088,46.89,15.488,5.305,1.1509,100776.25
0.9976,0.1157,0.0171,35.305,-8.232,15.427,1.0044,100776.04
0.772,0.1182,0.0103,30.854,37.683,24.329,0.781,100776.61
0.8638,0.1978,-0.0078,32.317,20.183,4.939,0.8862,100776.67
0.9595,0.2598,-0.3086,15.244,11.22,-6.037,1.0408,100776.96
1.04,0.1118,-0.2705,5.854,40.183,-0.61,1.0804,100776.19
0.9551,0.0356,-0.1758,4.146,3.293,-7.195,0.9718,100776.46
0.8779,0.0645,-0.2026,1.951,-6.037,-15.244,0.9033,100777.43
0.8574,0.1304,-0.228,4.207,-5.671,-12.012,0.8968,100777.78
0.7988,0.124,-0.2354,6.341,3.902,-0.671,0.842,100777.17
0.9419,0.0967,-0.3257,6.585,5.244,1.159,1.0013,100776.7
0.9546,0.0718,-0.3579,12.378,-26.098,-1.159,1.022,100777.35
0.9541,0.1025,-0.4131,6.951,-39.146,-2.073,1.0447,100777.37
1.0371,0.0903,-0.4014,-0.549,-29.39,4.451,1.1157,100777.6
1.063,0.0752,-0.3774,-1.707,-26.951,9.39,1.1305,100777.79
1.1724,0.1665,-0.4722,-12.744,-25.122,9.329,1.2748,100777.55
1.1729,0.1255,-0.4106,-38.171,-12.988,13.232,1.249,100777.47
1.2158,0.04,-0.0117,-29.024,-15.427,4.268,1.2165,100777.2
0.9521,0.0107,0.1021,7.927,2.683,5.671,0.9577,100777.12
0.7505,0.0259,0.0562,36.341,8.659,10.488,0.753,100777.42
0.6396,-0.0498,-0.0376,17.439,30.427,20.305,0.6427,100776.53
0.8496,-0.125,-0.0884,-10.793,66.768,19.329,0.8633,100776.37
1.0312,-0.1299,-0.2686,-15.244,63.171,11.768,1.0735,100777.48
1.0054,0.0117,-0.1577,7.073,11.341,-4.573,1.0177,100777.95
0.9307,0.0015,-0.1699,7.073,3.171,-9.451,0.9461,100777.32
0.9165,-0.0049,-0.2061,21.159,13.963,-0.732,0.9394,100777.47
0.853,-0.0776,-0.1685,22.805,21.768,1.341,0.873,100777.09
0.9629,-0.1372,-0.1689,12.195,24.268,-8.354,0.9872,100777.29
0.9805,-0.1299,-0.2373,11.707,8.476,-13.659,1.0171,100776.84
1.02,-0.1265,-0.1685,24.695,21.098,-7.988,1.0415,100777.23
1.0908,-0.1079,-0.2109,27.744,33.293,-3.354,1.1163,100777.76
1.1494,-0.0591,-0.3286,19.512,10.366,-12.134,1.1969,100778.17
1.2192,-0.0938,-0.3335,13.902,-16.829,-14.878,1.2675,100778.72
1.1685,-0.1323,-0.104,21.951,-23.72,-2.866,1.1805,100779.02
1.1328,-0.083,0.2344,39.451,-14.207,6.89,1.1598,100778.38
0.9971,0.21,0.2222,41.463,-4.695,15.61,1.0429,100778.02
0.8105,0.4531,0.104,21.037,-1.037,12.866,0.9344,100777.27
0.8418,0.3135,0.04,-5.488,1.585,-8.049,0.8992,100776.97
0.8652,0.0571,-0.1802,-31.951,18.598,-19.512,0.8856,100776.38
0.9321,-0.0605,-0.3115,-36.768,12.5,-19.756,0.9847,100777.02
0.9399,-0.0791,-0.1587,-17.012,-3.537,-13.171,0.9565,100777.88
0.9126,0.0596,-0.0947,-7.561,-3.476,-5.488,0.9194,100777.3
0.8105,0.1797,-0.1709,-18.841,-10.793,-0.061,0.8476,100776.87
0.8481,0.1953,-0.1743,-13.78,-2.134,1.341,0.8876,100776.93
0.9365,0.0962,-0.2207,-2.927,11.28,10.915,0.967,100775.98
0.9824,0.0342,-0.3193,-6.585,4.634,11.585,1.0336,100775.61
1.0586,0.0361,-0.356,-21.28,-6.768,8.841,1.1174,100776.34
1.2236,0.0693,-0.2935,-28.72,-18.598,8.476,1.2602,100777.38
1.2612,0.1602,-0.3291,-30.793,-30.671,12.805,1.3133,100777.19
1.2935,0.147,-0.2559,-36.707,-21.768,17.5,1.3267,100776.66
1.1196,0.0503,0.1313,-20.061,-17.134,14.39,1.1284,100776.49
0.9082,-0.0225,0.2905,7.378,14.451,9.878,0.9538,100776.63
0.7832,0.0234,0.1284,23.354,13.72,15.976,0.794,100776.49
0.79,-0.0933,0.0034,12.744,36.951,22.622,0.7955,100776.87
0.9106,-0.2168,-0.0146,-10.0,52.317,11.22,0.9362,100776.66
0.917,-0.1421,-0.0752,-15.549,11.098,-9.695,0.931,100776.77
0.8193,-0.0376,-0.0601,-0.732,-10.915,-12.439,0.8224,100776.45
0.9229,-0.123,-0.0806,15.061,28.11,0.976,0.9345,100777.18
1.0337,-0.1177,-0.2026,17.866,36.646,1.22,1.0599,100777.02
0.9858,-0.0981,-0.1841,10.305,17.683,-6.524,1.0077,100778.13
0.9688,-0.0684,-0.1772,7.805,-3.963,-16.22,0.9872,100778.35
1.0127,-0.0508,-0.1704,21.28,2.5,-9.573,1.0282,100778.02
1.2676,-0.0547,-0.186,29.573,20.793,0.183,1.2823,100777.89
1.186,-0.0786,-0.2705,20.976,-4.756,1.768,1.219,100778.16
1.1968,-0.1177,-0.0454,17.561,-19.756,-3.598,1.2034,100778.63
1.2168,-0.1831,0.229,21.524,-17.744,-2.439,1.2516,100778.26
1.0317,0.0234,0.2554,31.098,-36.341,-4.573,1.0631,100778.09
0.8169,0.3579,0.1323,26.829,-42.988,-1.22,0.9016,100779.44
0.832,0.3955,0.0928,24.939,-14.146,-2.805,0.9259,100778.6
0.834,0.1514,-0.0283,4.146,19.268,-6.829,0.8481,100777.72
0.9023,-0.0635,-0.2817,-29.268,30.122,-18.415,0.9474,100777.56
0.9194,-0.1396,-0.188,-12.317,2.683,-15.305,0.9488,100777.32
0.7974,-0.0151,-0.1455,2.805,-14.146,-11.646,0.8107,100777.62
0.8081,0.1221,-0.1958,1.89,-8.902,-12.378,0.8404,100777.73
1.0215,0.1362,-0.313,0.0,2.988,-5.305,1.077,100777.68
1.0786,0.1182,-0.2988,0.549,-14.634,4.451,1.1255,100777.9
1.1084,0.0522,-0.2456,-17.988,-32.988,1.829,1.1365,100778.57
1.1152,0.0747,-0.3389,-17.744,-56.646,-4.878,1.168,100778.58
1.1592,0.2017,-0.4072,-2.256,-38.78,-1.22,1.2451,100779.43
1.4053,0.0366,-0.0278,-17.988,-3.902,7.561,1.406,100778.35
1.1284,-0.1367,0.1689,-22.683,-19.695,4.878,1.1492,100778.16
0.8965,-0.0952,0.0977,4.817,-40.427,-4.573,0.9068,100778.15
0.6553,-0.0884,0.0435,14.512,-12.927,13.72,0.6626,100778.0
0.7798,-0.1538,0.0171,-9.268,45.854,17.378,0.795,100777.89
0.9097,-0.146,-0.0605,-31.159,53.293,-0.854,0.9233,100777.56
0.854,0.0098,-0.1787,-31.585,8.72,-14.39,0.8726,100777.23
0.7407,0.0356,-0.2207,-19.146,1.22,3.537,0.7737,100776.59
0.8374,-0.1138,-0.1836,-10.854,15.488,7.744,0.8648,100776.61
1.0352,-0.1538,-0.1938,-7.866,34.878,1.037,1.0643,100776.35
1.0649,-0.061,-0.3218,-16.341,24.939,-6.768,1.1142,100776.68
1.0156,-0.042,-0.3081,-22.805,-4.146,-13.78,1.0622,100777.03
1.1021,-0.0166,-0.2251,-9.634,-9.512,-12.683,1.1249,100777.55
1.2534,0.1255,-0.3213,2.012,1.28,-4.085,1.3,100778.18
1.248,0.1001,-0.3091,5.976,9.695,0.549,1.2896,100778.42
1.332,-0.1626,0.1445,16.707,-18.78,-21.402,1.3497,100777.98
1.2021,-0.0562,0.1816,16.768,-82.744,-44.756,1.2171,100777.41
0.8115,0.3477,0.0239,4.207,-109.512,-31.829,0.8832,100777.23
0.5332,0.4741,-0.207,-0.549,-65.061,-5.732,0.7429,100777.22
0.6543,0.2764,-0.2568,18.415,25.671,0.183,0.7553,100776.95
0.8892,0.0542,-0.207,15.915,70.427,2.317,0.9146,100777.77
0.8965,0.0361,-0.2676,-12.744,34.512,-0.671,0.9363,100777.27
0.7495,0.0996,-0.3057,-7.378,2.561,-8.537,0.8155,100777.48
0.7661,0.1592,-0.2422,0.61,18.72,-14.573,0.8191,100777.66
0.939,0.2158,-0.3677,-8.293,20.061,-9.573,1.0312,100778.06
0.9287,0.2397,-0.4175,-0.061,5.244,7.439,1.0461,100777.36
0.9873,0.1753,-0.3833,3.659,-3.232,12.744,1.0735,100778.06
1.313,0.2515,-0.5029,-10.244,-20.305,-3.11,1.4283,100777.58
1.2056,0.0195,0.0537,-18.354,-68.476,-10.976,1.2069,100777.97
1.1211,0.0205,-0.0176,-16.098,-103.659,-15.122,1.1214,100778.52
0.8301,0.0112,-0.0361,26.646,-39.207,17.439,0.8309,100778.56
0.7036,-0.0269,-0.0127,29.085,39.573,34.024,0.7042,100777.36
0.8428,-0.042,-0.2051,-9.146,65.244,24.39,0.8684,100777.8
0.96,-0.041,-0.2935,-35.427,40.0,5.793,1.0047,100777.3
0.8687,0.062,-0.3174,-32.683,2.439,-2.256,0.9269,100777.3
0.7598,0.061,-0.3003,-13.232,-7.744,3.11,0.8192,100777.03
0.7764,-0.0356,-0.2407,2.622,0.793,5.061,0.8136,100776.58
0.8706,-0.0527,-0.3276,5.549,20.976,-1.037,0.9317,100776.36
0.9966,-0.0205,-0.4106,2.988,12.256,-10.793,1.0781,100776.7
1.0464,0.0078,-0.4438,0.488,-5.244,-7.927,1.1367,100777.09
1.0933,0.0391,-0.4351,8.598,0.732,2.805,1.1773,100777.24
1.104,0.0498,-0.4639,18.841,-2.805,4.268,1.1985,100777.73
1.2456,-0.0186,-0.2402,34.39,-22.5,-0.915,1.2687,100777.73
1.1758,0.0049,-0.0474,40.366,-54.512,-1.951,1.1767,100777.12
0.9614,0.2144,-0.1846,36.951,-34.207,5.976,1.0022,100776.91
0.9067,0.3296,-0.2065,31.463,14.329,10.549,0.9866,100777.0
0.8867,0.1958,-0.2275,2.317,20.183,1.768,0.9362,100775.95
0.791,0.0464,-0.3433,-29.085,22.866,-4.085,0.8635,100776.65
0.7256,-0.0151,-0.3003,-29.817,13.537,-7.744,0.7854,100777.41
0.6362,0.0171,-0.248,-17.439,5.793,-5.732,0.6831,100779.09
0.9448,0.1377,-0.3867,-15.183,22.927,-5.671,1.0301,100778.64
0.9126,0.1411,-0.3721,-11.037,7.317,3.902,0.9956,100778.54
0.9097,0.1372,-0.4761,-5.976,0.305,6.585,1.0358,100777.6
0.9766,0.1284,-0.5571,-4.756,-10.793,10.427,1.1316,100777.38
1.0918,0.085,-0.5098,-5.549,-27.988,16.829,1.2079,100777.82
1.1211,0.0991,-0.5117,-5.427,-25.0,23.659,1.2363,100778.29
1.0786,0.1499,-0.542,-7.012,-15.915,18.11,1.2164,100777.16
1.1504,0.0801,-0.3018,-14.39,-16.585,3.354,1.192,100777.7
1.1479,0.0283,-0.0288,-24.939,-30.671,-8.963,1.1487,100777.35
0.9941,-0.0327,0.0664,-4.512,-16.159,-3.476,0.9969,100775.97
0.7222,-0.0322,-0.0527,14.085,15.0,17.927,0.7248,100777.15
0.7549,-0.0708,-0.1631,2.256,34.085,13.171,0.7755,100776.57
0.9419,-0.0771,-0.2197,-20.122,32.622,-5.793,0.9703,100777.11
0.8999,0.0029,-0.3188,-26.89,18.232,-10.183,0.9547,100777.39
0.7759,0.0479,-0.3188,-12.805,8.659,-7.256,0.8402,100777.14
0.8052,-0.0127,-0.2441,1.89,3.72,-9.878,0.8415,100776.31
0.874,-0.0586,-0.3057,5.732,9.085,-7.927,0.9278,100776.31
0.9307,-0.0459,-0.418,7.988,20.122,-8.171,1.0212,100777.54
1.0098,-0.0317,-0.5137,3.598,5.61,-15.61,1.1334,100777.86
1.0112,-0.0278,-0.4238,10.305,-19.512,-16.28,1.0968,100777.12
1.0098,0.0532,-0.3979,18.841,-22.622,-11.402,1.0867,100776.68
1.0547,0.1475,-0.501,21.89,-2.744,-5.122,1.1769,100777.2
1.0024,0.1025,-0.4961,18.354,26.22,2.378,1.1232,100777.0
1.187,-0.084,-0.0845,36.341,19.024,-6.951,1.193,100776.56
1.1753,-0.0425,0.082,54.146,-34.39,-13.354,1.1789,100776.13
0.874,0.3027,-0.1426,51.402,-46.341,7.073,0.9359,100776.92
0.8184,0.3867,-0.231,43.415,-4.634,10.793,0.9341,100776.87
0.9692,0.1968,-0.2539,19.634,23.293,-7.134,1.0211,100776.49
0.8086,0.0044,-0.3174,-8.293,14.878,-12.805,0.8687,100776.94
0.6128,-0.0698,-0.3647,-4.939,8.354,-16.402,0.7165,100776.42
0.6538,-0.0059,-0.3208,10.976,12.622,-22.744,0.7283,100776.16
0.7808,0.1079,-0.3433,2.439,16.89,-17.134,0.8597,100775.59
0.9414,0.1001,-0.4072,-9.268,16.341,-8.537,1.0306,100776.64
1.002,0.0801,-0.3506,-7.622,10.366,4.695,1.0645,100776.69
0.9434,-0.0015,-0.4097,-23.11,10.305,18.841,1.0285,100777.33
1.064,-0.0034,-0.522,-34.085,9.878,12.988,1.1851,100778.08
1.1299,0.1528,-0.5303,-21.646,-9.817,3.841,1.2575,100778.64
1.1001,0.2593,-0.5381,-22.012,-10.183,8.902,1.2518,100778.16
1.2378,0.1289,-0.3896,-20.854,-14.085,7.622,1.3041,100777.96
1.2329,0.021,0.0469,-15.244,-42.317,7.988,1.234,100777.53
0.9526,-0.0562,0.1836,-20.793,-43.171,9.756,0.9718,100776.99
0.8262,-0.0796,-0.0303,-29.146,9.39,28.232,0.8305,100776.56
0.7803,-0.0977,-0.228,-24.329,50.0,45.427,0.8188,100776.37
0.8809,-0.0947,-0.3481,-34.756,39.207,29.39,0.9519,100776.23
0.9946,-0.0259,-0.3257,-33.354,5.0,9.39,1.0469,100776.99
0.7637,0.0479,-0.1973,-19.207,-11.646,9.695,0.7902,100776.95
0.6704,0.021,-0.251,-17.317,2.256,3.11,0.7162,100777.91
0.749,-0.0537,-0.2666,1.341,20.183,-3.415,0.7969,100776.53
0.9521,-0.0781,-0.3203,3.415,27.195,-6.159,1.0076,100776.11
1.1133,-0.0713,-0.5269,-8.537,-20.793,-4.024,1.2337,100777.76
1.1543,-0.0801,-0.3843,11.829,-8.902,7.378,1.2192,100778.26
1.022,-0.0811,-0.25,36.159,9.329,11.28,1.0552,100778.02
1.1021,-0.0176,-0.2764,51.951,35.427,-0.061,1.1363,100778.12
1.1973,-0.0605,0.0557,55.244,11.037,-0.793,1.2001,100778.2
1.0347,0.022,0.1675,38.171,-0.793,5.122,1.0484,100777.74
0.9512,0.2104,0.1118,29.817,1.524,8.537,0.9806,100777.52
0.8032,0.2598,-0.0845,12.256,0.427,10.122,0.8484,100777.0
0.8457,0.1309,-0.4937,-2.744,24.756,-4.817,0.9879,100776.59
0.9185,-0.0234,-0.3623,26.89,7.561,-17.378,0.9876,100777.3
0.8711,-0.1152,-0.0425,35.061,-8.598,-8.354,0.8797,100777.7
0.7637,-0.1118,-0.1235,8.171,-7.866,4.695,0.7816,100777.62
0.7134,-0.0205,-0.2241,-4.146,-11.89,3.171,0.748,100777.94
0.8726,0.0669,-0.3203,-10.122,-1.89,-2.561,0.9319,100778.42
1.0479,0.021,-0.4644,-17.866,-6.098,-0.366,1.1463,100778.04
1.0698,-0.0737,-0.3516,-15.549,-23.841,3.476,1.1285,100777.74
1.0864,-0.0342,-0.4565,-26.768,-23.963,-0.61,1.1789,100777.67
1.1514,0.125,-0.7217,-22.561,-17.256,-0.976,1.3646,100776.87
1.2852,0.0718,-0.6016,-13.476,-29.39,-2.988,1.4208,100777.12
1.1182,-0.0791,0.0933,4.085,-66.28,-7.012,1.1248,100776.84
1.0063,-0.0435,0.2241,-3.049,-31.768,-9.634,1.0319,100776.22
0.7729,-0.0698,-0.1509,-15.915,9.512,2.866,0.7906,100776.62
0.7881,-0.1309,-0.2412,-1.28,48.232,7.5,0.8345,100776.45
0.9937,-0.1455,-0.376,-7.195,35.915,-3.11,1.0723,100776.06
1.0112,-0.103,-0.2812,2.744,-6.646,-7.622,1.0547,100777.12
0.7773,-0.085,-0.1665,2.195,-7.195,5.244,0.7995,100777.34
0.6582,-0.0835,-0.1753,-2.683,1.463,-0.122,0.6862,100777.71
0.7734,-0.0845,-0.354,-4.573,11.585,-11.768,0.8548,100778.02
0.9419,-0.1191,-0.4111,2.561,17.378,-13.841,1.0346,100778.39
0.9482,-0.1255,-0.4106,-4.817,0.061,-18.232,1.0409,100777.78
0.9268,-0.1177,-0.4194,-12.5,-3.963,-20.549,1.024,100777.21
1.0112,-0.0586,-0.3823,1.098,17.683,-11.829,1.0827,100777.51
1.0161,0.0049,-0.4741,12.805,31.951,-6.037,1.1213,100777.48
1.1709,0.0425,-0.5566,20.488,19.329,-10.183,1.2972,100778.33
1.2817,-0.1016,-0.1499,31.037,-3.232,-9.817,1.2945,100777.5
1.1973,-0.1143,0.2402,24.939,-9.085,-5.0,1.2265,100777.35
1.0024,0.1113,0.0693,-4.451,9.573,11.098,1.011,100777.87
0.8208,0.334,-0.0732,4.817,16.098,13.293,0.8892,100778.26
0.8955,0.2949,-0.2974,8.049,28.963,-4.146,0.9886,100778.42
1.0405,0.0361,-0.3682,3.537,7.927,-15.0,1.1043,100777.33
0.897,-0.0234,-0.2095,0.854,-32.5,-9.024,0.9214,100777.12
0.7524,-0.0234,-0.1567,-6.707,-25.793,7.317,0.769,100778.08
0.6133,0.0239,-0.1846,-5.915,-11.707,12.927,0.6409,100778.29
0.7256,0.1094,-0.3286,-10.061,0.366,2.195,0.804,100778.23
0.9268,0.0708,-0.4204,-5.732,4.024,-1.646,1.0201,100778.8
0.938,0.0137,-0.4185,-1.89,-10.976,2.561,1.0272,100778.09
0.9648,-0.0122,-0.4165,-17.866,-13.232,5.427,1.051,100778.06
1.0859,0.0195,-0.5015,-31.646,-19.329,6.524,1.1963,100777.8
1.1152,0.0938,-0.5747,-24.146,-23.171,10.976,1.2581,100776.98
1.1572,0.1611,-0.6079,-16.463,-6.463,16.098,1.3171,100776.49
1.166,0.0479,-0.3145,-35.976,-18.293,10.915,1.2086,100777.0
1.2168,-0.0435,0.0166,-50.183,-44.451,-4.634,1.2177,100776.52
0.9727,-0.0532,-0.0322,-8.963,-19.512,3.354,0.9746,100776.14
0.6631,-0.0591,-0.0649,31.037,35.976,27.866,0.6689,100776.23
0.8452,-0.146,-0.209,16.037,68.537,22.012,0.8828,100777.17
0.9468,-0.1621,-0.2231,-6.707,30.427,4.146,0.9861,100776.39
0.8276,-0.0542,-0.2656,-22.622,-0.793,-3.049,0.8709,100776.92
0.6904,-0.0498,-0.2056,-12.439,-1.341,1.463,0.7221,100778.56
0.7598,-0.123,-0.1348,-3.11,15.488,2.073,0.7814,100777.91
0.8667,-0.1489,-0.3042,-0.305,28.171,-1.89,0.9305,100777.59
1.0322,-0.1411,-0.4463,-1.585,30.427,-11.28,1.1334,100778.29
1.0903,-0.1392,-0.4727,-14.024,9.512,-20.061,1.1965,100777.36
1.0596,-0.1006,-0.3447,-9.634,-9.695,-16.28,1.1188,100777.16
1.0513,0.0146,-0.3672,6.768,-1.037,-2.012,1.1136,100777.64
1.0894,0.0405,-0.3638,20.0,17.439,6.463,1.1492,100778.22
1.2798,-0.1494,-0.0835,15.976,30.488,8.841,1.2912,100777.7
1.1978,-0.1152,0.0889,18.415,-24.085,0.915,1.2066,100778.41
0.9526,0.2358,0.1084,24.451,-25.976,8.293,0.9874,100778.31
0.7764,0.3896,-0.0249,13.354,16.707,19.024,0.869,100777.76
0.8628,0.2041,-0.0771,3.537,27.622,-0.122,0.89,100778.09
0.938,0.0605,-0.2998,-25.427,7.012,-23.537,0.9866,100778.47
0.8403,-0.0034,-0.3638,-24.878,-10.915,-19.268,0.9157,100778.64
0.7129,-0.0435,-0.2197,2.5,-2.927,-2.927,0.7472,100777.91
0.7017,-0.0078,-0.2344,11.646,6.402,0.488,0.7398,100778.83
0.8428,0.0786,-0.3027,9.573,10.427,-3.537,0.8989,100779.4
1.0098,0.0874,-0.2998,7.439,13.476,-1.22,1.057,100779.19
1.1484,0.0654,-0.3813,-3.354,23.354,11.22,1.2119,100779.29
1.2124,-0.0444,-0.3955,-10.61,8.476,13.72,1.2761,100779.74
1.146,0.0122,-0.2754,-7.073,-18.11,10.244,1.1787,100779.09
1.1343,0.1606,-0.4355,-18.476,-17.622,6.463,1.2256,100778.35
1.3901,0.0312,-0.1655,-27.805,-25.0,-5.305,1.4003,100778.91
1.2026,-0.0938,0.1157,-25.244,-37.866,-6.098,1.2118,100778.84
0.8398,-0.0322,0.0732,15.732,-18.232,1.098,0.8436,100778.06
0.792,-0.0562,0.0225,32.012,12.683,23.415,0.7943,100777.95
0.5884,-0.2559,-0.0576,2.317,29.268,34.695,0.6442,100778.12
0.5884,-0.2559,-0.0576,2.317,29.268,34.695,0.6442,100778.76
0.8096,-0.2729,-0.0869,-16.037,18.598,-2.134,0.8588,100778.22
0.9224,-0.1514,-0.1104,-21.585,6.037,-26.768,0.9412,100778.08
0.8921,0.0059,-0.1953,-22.134,13.293,-16.646,0.9132,100778.22
0.8125,-0.0347,-0.2285,-12.073,21.585,-1.098,0.8447,100778.09
0.9492,-0.1284,-0.2559,-1.524,19.573,-6.037,0.9914,100777.84
1.0498,-0.1689,-0.2964,-0.549,7.988,-14.512,1.1038,100777.9
1.0161,-0.147,-0.333,-5.366,-6.098,-16.098,1.0793,100778.59
1.0073,-0.1191,-0.271,0.366,-7.134,-7.927,1.0499,100778.72
1.1323,-0.043,-0.3149,10.244,8.476,0.793,1.1761,100779.56
1.2603,0.0356,-0.3613,17.439,14.634,4.817,1.3115,100779.09
1.1841,-0.0444,-0.2686,8.963,6.707,8.598,1.215,100778.24
1.1924,-0.1743,0.1108,6.707,-19.207,1.89,1.2101,100778.1
1.0566,-0.0752,0.1816,3.293,-39.39,-2.622,1.0748,100778.86
0.7798,0.248,0.1177,7.134,-20.305,11.159,0.8267,100778.7
0.7168,0.3594,-0.0142,8.293,21.524,12.256,0.802,100778.83
0.8979,0.1963,-0.105,6.402,33.415,-10.671,0.9251,100778.78
1.0127,0.0229,-0.3091,-19.268,15.549,-24.268,1.0591,100778.01
0.8389,-0.0645,-0.2539,-14.756,-1.402,-14.268,0.8788,100777.83
0.7056,-0.0586,-0.127,3.537,8.72,-8.171,0.7193,100777.32
0.7773,0.0493,-0.1655,2.012,20.061,-8.963,0.7963,100777.42
0.9546,0.1172,-0.2285,-2.683,26.524,-3.78,0.9885,100777.87
1.0225,0.1055,-0.2729,-2.561,17.256,7.073,1.0635,100777.45
1.02,0.064,-0.2861,-2.744,7.5,14.451,1.0613,100777.77
1.1172,0.0376,-0.3384,-10.854,-9.024,5.549,1.1679,100778.12
1.1772,0.0713,-0.3062,-7.5,-24.939,-4.329,1.2185,100778.87
1.1704,0.145,-0.3892,-9.634,-20.976,-5.366,1.2419,100778.2
1.2197,0.1382,-0.4507,-30.061,-19.207,-8.659,1.3076,100777.59
1.1763,0.0234,-0.0439,-32.317,-28.902,-11.89,1.1773,100777.12
1.0454,-0.0205,0.1538,4.756,-5.427,-3.232,1.0569,100777.02
0.8345,-0.0342,0.147,44.207,16.402,18.11,0.848,100776.57
0.7319,-0.1108,0.1367,40.793,20.427,29.085,0.7528,100776.87
0.8477,-0.1489,-0.0005,-7.195,31.098,10.427,0.8606,100777.06
1.0288,-0.1353,-0.1265,-27.866,44.329,-0.61,1.0453,100776.48
0.9448,-0.0879,-0.022,-1.829,29.939,8.293,0.9492,100776.91
0.8188,-0.0029,-0.0195,-0.488,10.244,8.049,0.8191,100776.75
0.7422,-0.0181,-0.1353,-7.317,12.622,7.012,0.7546,100776.15
0.8936,-0.0791,-0.1685,3.963,24.024,-2.988,0.9127,100776.3
1.0825,-0.1382,-0.2314,14.939,13.415,-10.854,1.1156,100777.28
1.0996,-0.0571,-0.2407,25.305,-20.0,-22.073,1.1271,100778.09
1.2363,0.0352,-0.1431,40.244,-3.598,-16.037,1.2451,100777.88
1.2134,0.0088,-0.124,40.244,-9.573,5.0,1.2197,100777.58
1.1245,-0.063,-0.0439,22.073,-9.817,2.927,1.1271,100777.62
1.1724,-0.0234,0.1328,17.744,18.171,-12.805,1.1801,100778.52
0.9805,0.1172,0.2275,35.244,14.695,5.427,1.0133,100777.72
0.7202,0.147,0.147,35.854,5.061,18.476,0.7496,100777.5
0.7412,0.0737,0.0474,19.939,20.549,7.439,0.7464,100777.71
0.8091,0.0117,-0.0093,5.0,22.744,-3.415,0.8092,100778.48
0.8267,0.0278,-0.1523,-16.89,20.244,-10.488,0.841,100778.19
0.8696,0.0195,-0.1143,-18.293,15.305,-10.793,0.8773,100778.7
0.9526,-0.0049,-0.1011,-21.463,8.232,-6.341,0.958,100779.36
0.96,-0.001,-0.1406,-27.5,-0.61,-2.805,0.9702,100779.34
1.0679,0.0127,-0.1455,-31.28,-2.439,-6.28,1.0778,100779.34
1.1553,0.0684,-0.1968,-34.939,-16.402,-8.598,1.1739,100779.44
1.1924,0.0723,-0.1797,-34.451,-23.598,-2.927,1.208,100779.3
1.1948,0.022,-0.1011,-34.817,-25.061,0.244,1.1993,100779.55
1.1333,0.019,-0.0308,-34.939,-39.146,-5.427,1.1339,100779.24
1.0024,0.064,-0.0161,-30.732,-26.707,-1.159,1.0046,100779.52
1.0645,0.0439,0.0771,-19.512,-1.707,-14.268,1.0681,100779.47
1.0396,0.0474,0.1782,-4.207,-11.524,-22.561,1.0558,100779.32
0.8296,0.019,0.2139,4.695,33.72,15.305,0.8569,100779.58
0.8076,-0.0723,0.1626,-1.402,70.976,28.415,0.827,100778.9
0.8345,-0.0703,0.1665,-3.354,38.659,3.963,0.8538,100778.39
0.8691,-0.0332,0.0454,-12.622,28.11,-9.451,0.871,100777.76
0.916,-0.0601,-0.0625,-5.671,29.268,-0.549,0.9201,100777.91
0.9204,-0.0679,0.0527,8.232,17.195,2.378,0.9244,100777.52
0.8721,-0.0303,-0.1606,-12.439,-3.78,-4.756,0.8873,100778.09
1.0396,-0.1045,-0.397,-14.695,3.78,-13.78,1.1177,100777.91
1.2603,-0.1499,-0.0801,7.866,-4.756,-19.085,1.2717,100778.27
1.0659,-0.0039,-0.0781,4.512,-19.207,-8.476,1.0688,100778.53
1.1792,0.1187,-0.126,8.78,0.183,-2.073,1.1918,100778.09
1.3516,0.0718,-0.2163,7.256,-14.512,-2.622,1.3706,100778.15
1.2017,-0.0264,0.0562,14.39,-33.963,0.671,1.2033,100778.33
1.0132,-0.0791,0.4214,32.256,-31.341,4.512,1.1002,100778.2
0.8926,0.1914,0.4492,34.39,1.768,24.634,1.0174,100778.62
0.7349,0.4624,0.1382,3.659,19.756,17.622,0.8792,100778.33
0.939,0.2314,0.0342,-7.439,25.244,-14.451,0.9677,100778.34
1.0161,-0.0234,-0.1172,-11.22,14.817,-18.72,1.0231,100778.2
0.8398,-0.0527,-0.104,-6.22,-24.024,-18.049,0.8479,100779.11
0.7241,0.019,-0.0508,-3.598,-17.744,-13.72,0.7261,100778.55
0.7842,0.0825,-0.0479,0.0,3.537,-6.951,0.79,100778.27
0.8813,0.1221,-0.1211,-3.293,4.085,-5.305,0.898,100778.18
0.9297,0.1074,-0.146,1.646,2.683,2.317,0.9472,100778.23
1.0088,0.0708,-0.1514,-0.427,10.732,12.683,1.0225,100777.9
1.0801,0.0708,-0.1978,-18.171,5.732,4.634,1.1003,100778.39
1.2578,0.0952,-0.3022,-44.695,-16.341,-14.329,1.2971,100778.14
1.4277,0.1265,-0.2695,-35.305,-34.634,-14.024,1.4584,100777.72
1.2524,0.1245,-0.0581,-28.11,-35.549,3.354,1.26,100778.26
1.1011,0.0947,0.3545,-46.341,-49.634,-10.488,1.1606,100778.54
1.0127,0.0474,0.3242,-49.756,-52.317,-19.39,1.0644,100778.02
0.7217,0.0356,0.0459,-21.341,-16.585,9.756,0.724,100777.73
0.8325,-0.0981,0.1758,12.317,27.683,28.232,0.8565,100778.52
1.0103,-0.0737,-0.002,-8.232,47.5,27.927,1.0129,100777.64
0.9834,0.0713,-0.2871,-31.646,29.878,5.427,1.0269,100777.71
0.7686,0.125,-0.0947,-14.695,-11.098,-7.317,0.7844,100778.38
0.6758,0.0254,-0.0054,-1.402,-10.0,-3.598,0.6763,100778.25
0.8115,-0.0371,-0.1426,0.671,10.854,-0.732,0.8248,100778.05
0.9419,-0.0645,-0.2075,13.659,29.268,7.5,0.9666,100778.52
1.0464,-0.0059,-0.2134,18.659,18.902,-2.012,1.0679,100778.73
1.0322,0.061,-0.1797,17.134,-5.61,-14.39,1.0495,100778.8
1.1421,0.1353,-0.2075,27.5,8.902,-12.622,1.1686,100779.7
1.3535,0.1802,-0.2563,43.902,20.732,1.463,1.3893,100779.25
1.293,0.083,-0.1978,43.415,6.28,11.463,1.3106,100779.3
1.2422,-0.1172,0.1997,34.268,-23.659,-7.317,1.2636,100778.45
1.2524,-0.0254,0.354,15.793,-42.439,-29.451,1.3018,100777.57
0.7822,0.3525,0.1689,-17.561,-73.293,-23.902,0.8745,100777.29
0.5552,0.3584,-0.0435,-20.732,-39.085,-9.146,0.6622,100777.7
0.7197,0.2607,0.0122,34.878,14.756,0.549,0.7656,100778.27
0.814,0.188,0.0156,52.012,24.939,1.89,0.8355,100778.08
0.9204,0.1216,-0.3101,27.805,36.22,10.854,0.9788,100777.55
0.9346,0.021,-0.2334,34.634,29.268,18.659,0.9635,100777.9
0.8062,0.0269,-0.0664,23.293,-5.183,4.573,0.8093,100777.92
0.8091,0.0962,-0.2046,-11.524,-12.683,-7.683,0.8401,100778.3
0.9946,0.1538,-0.311,-11.646,-15.122,-5.427,1.0534,100778.73
1.0996,0.1475,-0.3589,-14.695,-2.988,9.207,1.1661,100778.66
1.1665,0.0771,-0.2612,-15.0,-10.732,4.085,1.1979,100779.36
1.1777,0.1675,-0.1602,-5.366,-25.854,-4.817,1.2003,100779.51
1.3037,0.186,-0.1997,5.549,9.939,4.146,1.332,100779.53
1.4009,0.0186,0.0649,0.427,16.463,8.354,1.4025,100779.02
1.0029,-0.0298,0.2622,-14.817,-26.89,-0.427,1.0371,100779.38
0.772,-0.0566,0.0952,-19.085,-19.573,-1.037,0.7799,100779.16
0.8975,-0.1553,0.0088,-7.5,-5.854,3.598,0.9108,100779.26
0.9365,-0.1157,-0.1201,-5.305,0.976,8.171,0.9513,100779.47
0.7866,0.0488,-0.2896,-10.915,-5.488,12.073,0.8396,100779.37
0.6841,0.0684,-0.1729,-5.427,-32.256,5.732,0.7089,100779.16
0.7158,-0.0181,-0.1553,-10.549,-30.0,0.305,0.7327,100779.14
0.8081,-0.0645,-0.3057,-8.049,-7.439,-4.573,0.8664,100779.37
1.0171,-0.0859,-0.3701,-4.756,15.976,-11.89,1.0857,100778.3
1.1294,-0.0361,-0.4487,-16.463,12.683,-15.366,1.2158,100778.86
1.0469,0.019,-0.3677,-13.232,-6.402,-5.183,1.1097,100779.53
1.0605,0.0698,-0.3013,-0.366,-5.793,2.378,1.1047,100779.16
1.1323,0.1411,-0.4072,15.0,6.89,6.89,1.2116,100778.02
1.1328,0.0308,-0.1602,38.841,21.341,11.89,1.1445,100778.17
1.2002,-0.0435,0.1401,54.329,28.293,0.976,1.2091,100777.81
0.9531,0.2881,0.1919,52.927,20.122,11.707,1.014,100778.02
0.8193,0.3545,0.1587,19.146,9.878,10.488,0.9067,100777.45
1.022,0.1611,0.043,-9.207,8.963,-20.183,1.0355,100777.74
0.9653,0.1421,-0.3398,-27.134,0.671,-19.268,1.0332,100778.21
0.7534,-0.0244,-0.502,-22.439,2.256,8.78,0.9056,100777.84
0.7139,-0.0503,-0.1392,22.866,-4.939,18.78,0.729,100777.69
0.644,0.0288,-0.0342,18.841,0.0,14.451,0.6456,100777.43
0.877,0.1084,-0.2715,-5.0,0.0,3.537,0.9244,100777.73
1.1411,0.1309,-0.4341,-4.39,-16.89,0.122,1.2279,100778.73
1.0835,0.0674,-0.3799,1.159,-13.902,11.402,1.1501,100778.21
1.041,0.0156,-0.2129,2.561,-33.293,-1.159,1.0627,100777.97
1.1289,0.0713,-0.2979,-12.561,-41.159,-16.768,1.1697,100778.53
1.3926,0.063,-0.5195,-44.695,-31.159,-36.524,1.4877,100777.85
1.3428,0.0605,0.042,-18.963,-43.963,-39.512,1.3448,100777.93
1.0552,-0.0547,0.3027,18.963,-20.61,-7.378,1.0991,100778.49
0.7534,0.0146,0.0332,7.683,30.549,34.817,0.7543,100778.41
0.7349,-0.1357,-0.1221,-12.683,23.476,31.22,0.7572,100778.11
1.0161,-0.1455,-0.1836,-24.756,10.488,3.902,1.0428,100778.77
0.918,-0.0122,-0.3511,-19.817,9.756,5.549,0.9829,100778.12
0.7676,0.0454,-0.2827,3.232,12.378,18.72,0.8192,100778.28
0.7686,-0.0815,-0.1445,3.232,4.695,19.024,0.7863,100777.38
0.7285,-0.1553,-0.1978,-7.622,2.317,9.329,0.7707,100776.73
0.7954,-0.1108,-0.3169,-11.037,7.561,-10.976,0.8634,100776.23
0.9448,-0.0488,-0.4443,-16.707,5.61,-26.646,1.0452,100776.6
1.0312,-0.0337,-0.3755,-6.22,10.366,-23.11,1.098,100776.39
1.1992,0.021,-0.2896,12.073,25.61,-12.317,1.2339,100776.6
1.25,0.0811,-0.4185,12.134,35.61,2.866,1.3207,100776.77
1.2446,0.0054,-0.2529,11.037,19.146,2.988,1.2701,100777.27
1.2036,-0.0938,0.0952,16.951,5.061,-3.659,1.211,100778.14
1.0444,0.1304,0.1367,36.951,49.268,7.866,1.0614,100777.44
0.7183,0.3809,0.3291,42.195,42.317,13.537,0.8771,100777.28
0.7148,0.3501,0.1504,4.695,12.073,-14.207,0.8101,100777.91
0.9688,0.1743,-0.0679,-13.476,7.134,-36.22,0.9866,100778.02
1.0835,0.0654,-0.3906,-17.866,12.5,-26.037,1.1536,100776.85
0.9629,-0.0039,-0.2363,16.159,15.61,1.768,0.9915,100776.73
0.7114,0.0127,-0.0356,24.39,-13.293,6.951,0.7124,100777.27
0.6587,0.0503,-0.0513,8.232,-8.902,2.927,0.6626,100777.41
0.8125,0.0903,-0.1191,-4.573,-7.988,0.793,0.8261,100777.52
0.9805,0.1226,-0.3003,-21.463,-15.366,-1.098,1.0327,100777.61
1.1553,0.0679,-0.4302,-26.402,-8.78,0.915,1.2346,100777.52
1.2461,0.1113,-0.3179,-0.427,-15.122,-1.341,1.2908,100776.59
1.3477,0.2334,-0.208,-6.585,-32.561,-15.244,1.3834,100777.67
1.5454,0.1187,-0.2803,-47.195,-31.646,-22.561,1.5751,100777.85
1.2646,0.0361,0.2505,-6.951,-38.659,-12.012,1.2897,100778.59
0.8345,0.1074,0.2554,22.256,-14.573,9.207,0.8793,100778.55
0.5742,-0.0581,0.1963,14.329,31.098,42.561,0.6096,100777.52
0.5723,-0.146,0.105,-10.0,43.232,28.415,0.5999,100778.01
0.9487,-0.0322,-0.0527,-26.89,22.622,-9.085,0.9507,100778.09
0.9243,0.0454,-0.2251,-33.415,13.537,-4.756,0.9524,100778.41
0.8418,0.0264,-0.1758,-19.512,12.744,2.988,0.8604,100778.41
0.8813,-0.0127,-0.1177,-11.463,-2.317,-5.549,0.8893,100778.16
0.9624,-0.0234,-0.2119,-8.232,8.78,-7.439,0.9857,100778.11
1.0723,-0.0322,-0.269,-9.207,7.5,-10.0,1.106,100777.45
1.0791,-0.0415,-0.3364,-15.732,-15.915,-15.488,1.1311,100778.2
1.1763,0.2056,-0.2583,19.024,-10.732,-7.561,1.2217,100777.91
1.2515,0.1299,-0.2734,29.512,7.256,9.695,1.2876,100778.28
1.3599,-0.0938,0.0898,36.768,-3.171,-3.171,1.366,100778.83
1.1304,0.1089,0.1597,48.841,-8.78,-9.085,1.1468,100778.62
0.728,0.4199,0.2266,46.707,2.622,14.451,0.8705,100778.59
0.728,0.3296,0.2007,11.341,-5.244,0.183,0.824,100778.78
0.8813,0.1333,0.0254,-22.439,-2.439,-19.146,0.8917,100778.7
0.8906,0.0791,-0.3823,-39.695,-5.0,-13.902,0.9724,100777.54
0.8379,0.0303,-0.3418,-4.451,-2.439,-0.671,0.9054,100777.53
0.7192,0.0488,-0.0654,13.11,-9.207,1.951,0.7239,100776.91
0.7686,0.1357,-0.1836,-1.524,-20.61,-4.878,0.8018,100777.53
0.834,0.186,-0.2529,-6.159,-24.939,-9.39,0.8911,100777.63
0.9976,0.1807,-0.3633,-13.841,-7.5,-1.707,1.0769,100778.35
1.0708,0.1055,-0.4258,-18.11,6.524,15.61,1.1572,100778.88
1.1221,0.083,-0.4116,-20.183,-8.171,15.732,1.1981,100778.42
1.1802,0.1841,-0.4023,-26.524,-36.098,-0.061,1.2604,100777.82
1.3032,0.2202,-0.5977,-43.293,-37.378,-5.671,1.4505,100778.5
1.1919,0.1108,-0.313,-27.195,-35.671,8.11,1.2373,100777.52
0.9683,0.1597,0.1992,-5.671,-38.293,6.341,1.0014,100777.16
0.8643,0.1514,0.0933,-4.573,-2.012,3.841,0.8824,100778.13
0.7295,-0.0566,0.1348,8.659,36.646,21.28,0.744,100778.49
0.8418,-0.1523,0.1104,-8.78,51.463,16.402,0.8626,100778.53
0.9644,-0.0698,-0.2202,-36.159,28.11,-1.524,0.9916,100777.67
0.9453,0.0835,-0.4321,-25.549,11.89,-3.78,1.0427,100778.52
0.7939,0.0894,-0.2188,2.622,0.305,7.5,0.8284,100778.05
0.7646,0.04,-0.1709,0.854,-1.159,6.89,0.7845,100777.56
0.8389,0.0098,-0.269,1.646,6.585,-0.183,0.881,100778.07
1.0093,-0.0029,-0.3115,8.171,11.28,-5.061,1.0563,100777.85
1.0776,-0.0234,-0.4263,1.768,4.878,-7.744,1.1591,100777.67
1.1274,0.0332,-0.4111,9.939,-8.232,-12.439,1.2005,100776.95
1.1777,0.1465,-0.3296,24.085,-7.805,-5.61,1.2317,100777.49
1.1348,0.1768,-0.2725,37.012,-2.256,7.927,1.1803,100776.91
1.2153,0.0547,-0.146,39.268,5.793,7.195,1.2253,100776.72
1.2656,0.0093,-0.0078,41.22,-5.366,4.268,1.2657,100777.32
0.8511,0.1797,-0.0239,45.793,-2.683,23.72,0.8702,100777.52
0.6621,0.2476,0.082,44.146,11.28,21.707,0.7116,100778.42
0.7021,0.1738,0.1069,32.927,15.244,1.341,0.7312,100778.11
0.8242,0.1108,-0.062,13.354,27.927,-12.5,0.8339,100778.13
0.8848,0.0239,-0.2476,-2.5,24.451,-15.061,0.9191,100778.01
0.8877,-0.0288,-0.2407,2.988,18.354,-12.988,0.9202,100777.3
0.8218,-0.0112,-0.2051,6.402,18.354,-8.232,0.8471,100777.02
0.897,0.0591,-0.2358,-5.854,13.232,-8.232,0.9293,100776.32
1.0264,0.0991,-0.3359,-14.024,3.293,-2.256,1.0845,100776.54
1.0791,0.0684,-0.3823,-11.341,12.012,13.841,1.1469,100777.68
1.1357,0.0337,-0.3525,-9.634,0.732,11.463,1.1897,100777.92
1.2012,0.0757,-0.2334,-8.11,-22.805,2.134,1.226,100777.84
1.2202,0.0986,-0.335,-31.22,-34.39,-1.037,1.2692,100777.3
1.2368,0.0171,-0.4849,-49.39,-40.305,-6.585,1.3286,100777.03
1.0967,0.0728,0.0356,-24.268,-45.122,-5.61,1.0997,100776.94
0.957,0.0781,0.1997,-5.793,-18.841,0.427,0.9808,100777.12
0.7935,-0.0503,0.2935,22.378,23.963,21.037,0.8475,100776.77
0.7446,-0.1558,0.3242,9.939,62.195,29.512,0.827,100777.13
0.8877,-0.1143,-0.0781,-36.89,45.61,2.5,0.8984,100777.04
0.9287,-0.02,-0.2524,-42.683,5.61,-18.415,0.9626,100776.34
0.9272,0.0264,-0.2007,-25.427,11.402,-5.732,0.9491,100775.95
0.834,0.0029,-0.1484,-8.354,12.378,7.744,0.8471,100775.16
0.8184,-0.019,-0.1323,-0.549,9.878,3.232,0.8292,100775.69
1.001,-0.0361,-0.2622,-7.866,10.671,-12.012,1.0354,100775.09
1.1382,-0.0864,-0.3975,-10.183,-3.78,-20.671,1.2087,100775.74
1.0864,-0.0312,-0.3149,5.122,-22.439,-20.122,1.1316,100775.99
1.0752,0.1255,-0.2515,19.634,-20.915,-14.146,1.1113,100776.3
1.1069,0.166,-0.2451,33.476,-15.427,-1.341,1.1458,100776.28
1.1509,0.0781,-0.1836,35.366,-9.878,4.39,1.168,100776.38
1.249,-0.0361,0.1035,41.341,-9.024,-5.915,1.2538,100776.87
1.0947,0.2349,0.1992,56.829,28.293,9.756,1.1372,100777.34
0.7578,0.3696,0.189,49.085,45.671,32.195,0.8641,100776.59
0.6929,0.1729,0.1025,27.012,11.463,4.878,0.7214,100776.88
0.8506,0.0439,-0.1211,7.561,0.915,-23.841,0.8603,100777.09
0.937,-0.0171,-0.3228,3.415,13.232,-23.902,0.9912,100776.41
0.8999,0.0322,-0.1904,22.256,9.39,-17.622,0.9204,100775.4
0.7847,0.1143,-0.1108,17.805,9.207,-10.854,0.8007,100775.48
0.8511,0.1431,-0.1299,8.902,12.561,-8.354,0.8727,100775.68
0.9644,0.1191,-0.1748,11.524,2.744,-4.085,0.9873,100775.33
1.0571,0.0605,-0.3228,6.341,14.146,7.439,1.107,100775.92
1.1855,0.1401,-0.1353,-34.512,-18.659,0.61,1.2014,100775.17
1.3071,0.1216,-0.3013,-75.549,-45.0,-27.256,1.3469,100775.48
1.3047,0.1846,0.0342,-48.598,-31.037,-22.317,1.3181,100776.2
1.1758,0.1387,0.2959,-5.366,-0.732,4.329,1.2203,100775.87
0.9004,0.0337,0.1523,10.427,14.512,25.122,0.9138,100776.74
0.6758,-0.127,0.1182,3.72,35.732,44.939,0.6977,100776.53
0.7803,-0.2065,0.2061,-15.732,19.085,19.878,0.833,100776.87
0.9922,-0.0127,-0.1309,-39.024,7.622,-12.012,1.0009,100776.24
0.9609,0.0713,-0.2158,-27.866,4.512,-6.098,0.9875,100776.53
0.8618,-0.021,-0.0518,-10.915,-8.78,4.695,0.8636,100775.76
0.7598,-0.0679,-0.0093,-2.683,-2.805,7.134,0.7628,100775.17
0.8311,-0.0596,-0.0649,-7.012,14.39,-3.72,0.8357,100775.1
0.9858,-0.0234,-0.1631,-15.244,18.293,-13.293,0.9995,100774.93
1.0137,0.0356,-0.2866,-20.793,10.976,-15.122,1.054,100774.3
1.0518,0.0713,-0.3149,-14.878,-8.78,-18.963,1.1002,100775.7
1.123,0.0684,-0.2837,2.683,-17.256,-19.634,1.1603,100775.5
1.187,0.1323,-0.2246,28.293,-3.659,-7.256,1.2153,100775.37
1.0913,0.1987,-0.186,45.183,3.78,9.756,1.1247,100775.88
1.1089,0.1494,0.0352,47.195,8.476,6.768,1.1195,100776.27
1.2393,0.0161,0.1572,43.963,-14.024,-16.159,1.2493,100776.09
1.0903,0.1377,0.2896,49.329,-17.5,-2.439,1.1365,100776.05
0.7627,0.2759,0.1958,39.817,21.159,29.207,0.8344,100775.56
0.7852,0.2363,0.1182,42.134,42.744,30.854,0.8284,100775.68
0.958,-0.0845,-0.2397,11.585,9.146,-7.988,0.9912,100776.15
0.9868,-0.0854,-0.1768,16.829,-5.244,-6.28,1.0062,100775.76
0.9561,-0.0161,-0.1372,14.878,-7.256,0.549,0.966,100776.44
0.9634,0.0552,-0.1504,5.549,-32.134,6.646,0.9766,100776.59
0.8657,0.0762,-0.2007,-5.915,-33.415,21.646,0.8919,100776.19
0.9116,0.0884,-0.3413,-13.049,-18.293,18.902,0.9774,100774.79
1.0601,0.0132,-0.2822,-9.512,-25.427,7.378,1.0971,100774.5
1.061,-0.126,-0.1616,-19.756,-27.927,14.146,1.0806,100775.13
1.127,0.0464,-0.3765,-24.512,-42.805,5.793,1.1891,100775.34
1.4937,0.2285,-0.708,-27.378,-15.122,-5.915,1.6687,100775.54
1.1133,-0.0938,-0.0425,-5.854,-53.415,8.415,1.118,100775.66
0.8745,-0.2075,0.3213,10.0,-31.037,-4.878,0.9545,100774.76
0.939,-0.2212,0.3081,-0.305,22.988,-2.439,1.0127,100774.45
0.8896,-0.2031,0.1611,-29.878,22.073,11.829,0.9267,100773.75
0.8794,-0.1763,-0.0454,-46.951,3.11,10.854,0.898,100774.7
0.9331,-0.0991,-0.1675,-45.305,2.622,7.805,0.9532,100776.02
0.9287,0.0352,-0.2861,-33.354,10.122,21.707,0.9724,100775.29
0.7617,0.0312,-0.3491,-24.817,10.366,28.902,0.8385,100775.72
0.7778,-0.0508,-0.3184,-11.646,5.488,13.659,0.842,100775.58
0.9248,-0.1631,-0.2754,-1.341,11.402,3.659,0.9786,100774.96
1.0127,-0.2104,-0.3101,-1.707,2.561,-3.659,1.0798,100775.36
1.0425,-0.1895,-0.3203,-2.988,-8.049,-6.463,1.1069,100774.93
1.0679,-0.1641,-0.3232,0.0,-2.073,-1.098,1.1277,100775.46
1.0571,-0.0615,-0.4414,11.768,2.195,0.549,1.1472,100774.52
1.0903,0.0791,-0.5347,35.427,14.268,4.512,1.2169,100774.05
1.3262,-0.1445,-0.0649,58.049,2.317,10.244,1.3356,100774.57
1.27,-0.2061,0.374,52.134,-32.927,15.488,1.3399,100775.07
1.0117,-0.0176,0.2397,25.549,-12.134,42.012,1.0399,100774.96
0.7573,0.1812,0.1035,17.622,11.768,59.207,0.7855,100774.75
0.519,0.1323,-0.3428,-0.183,16.037,33.415,0.6359,100774.85
0.895,-0.1094,-0.3545,24.634,10.122,-23.049,0.9689,100775.3
1.0244,-0.272,-0.1021,32.012,-2.622,-17.073,1.0648,100774.27
0.8882,-0.3149,-0.1147,11.037,-3.598,3.537,0.9493,100775.0
0.7344,-0.208,-0.2227,-4.817,-2.378,7.744,0.7951,100775.03
0.709,-0.0195,-0.4712,-15.183,-0.244,0.122,0.8515,100776.29
0.8667,-0.0493,-0.46,0.854,4.512,-6.463,0.9824,100775.99
1.0063,-0.2441,-0.1992,14.878,-0.366,-11.159,1.0545,100775.55
1.1748,-0.3604,-0.1255,-10.793,-11.585,-17.744,1.2352,100776.31
1.2729,-0.2461,-0.3208,-38.659,-19.756,-12.256,1.3356,100776.52
1.1304,-0.0063,-0.771,-42.683,-11.585,2.622,1.3683,100776.42
1.2529,-0.0894,-0.4604,-16.463,-20.305,-9.512,1.3378,100775.98
1.0952,-0.2241,0.1797,-9.329,-41.829,-14.512,1.1323,100775.66
0.8433,-0.2397,0.3311,0.854,13.902,-10.244,0.9371,100775.05
0.8345,-0.2334,0.3848,-6.463,39.817,-1.585,0.9481,100774.85
0.6841,-0.3071,0.001,-60.61,26.768,10.671,0.7499,100774.95
0.8398,-0.2949,-0.2876,-58.537,23.902,-8.841,0.9354,100773.77
1.0962,-0.1226,-0.2671,-34.634,23.415,-19.939,1.1349,100773.88
0.9385,-0.022,-0.2358,-31.037,2.5,-4.146,0.9679,100774.34
0.6895,-0.1001,-0.1152,-26.646,-5.183,-0.976,0.7061,100774.8
0.7754,-0.1865,-0.0947,-20.549,6.707,-16.585,0.8031,100773.79
0.9526,-0.2124,-0.228,-20.244,25.976,-22.744,1.0023,100774.02
1.0703,-0.1519,-0.3882,-21.951,21.341,-22.317,1.1486,100773.55
1.0396,-0.1362,-0.3135,-12.744,13.171,-11.951,1.0943,100773.71
1.0996,-0.1328,-0.1313,-15.061,21.098,-13.902,1.1154,100774.1
1.2676,0.0225,-0.4502,-26.098,12.622,-24.634,1.3453,100773.77
1.1816,0.0342,-0.3477,7.866,5.854,-7.195,1.2322,100774.99
1.1338,-0.082,0.042,25.305,-2.378,-2.134,1.1375,100774.69
1.0479,-0.0493,0.2266,23.049,-35.183,-24.634,1.0732,100775.2
0.9434,0.2471,0.187,25.183,-32.805,-25.366,0.9929,100774.47
0.8145,0.4102,0.1294,15.305,-9.024,2.866,0.921,100774.19
0.7524,0.3169,-0.1064,-7.683,18.963,18.78,0.8234,100774.21
0.8984,0.1099,-0.2544,-19.817,49.085,12.805,0.9402,100774.24
0.958,0.0117,-0.1841,-19.573,15.61,-8.72,0.9756,100775.02
0.9976,0.0063,-0.2202,-11.524,-10.061,-17.683,1.0216,100774.7
0.9346,0.0811,-0.2881,9.39,-2.012,-6.341,0.9813,100775.35
0.8511,0.145,-0.2124,15.183,-6.585,-1.951,0.8891,100774.47
0.8662,0.1611,-0.2314,-1.341,-13.902,-1.402,0.911,100774.45
0.9624,0.1323,-0.2656,-17.866,-5.061,16.524,1.0071,100774.27
1.0068,-0.0176,-0.3062,-30.793,-9.268,30.244,1.0525,100774.55
1.1646,-0.0244,-0.3735,-32.683,-31.524,6.22,1.2232,100773.9
1.2593,0.1592,-0.4678,-19.878,-42.805,-8.902,1.3527,100774.27
1.2007,0.2085,-0.4312,-10.244,-19.817,3.11,1.2927,100773.94
1.3105,0.02,0.0571,-9.085,-35.732,-0.183,1.3119,100774.05
1.1064,-0.103,0.1436,-17.744,-51.646,-8.537,1.1205,100773.52
0.7588,-0.063,-0.063,20.0,-16.037,14.634,0.764,100773.9
0.7744,-0.0708,-0.1084,5.427,15.793,13.293,0.7852,100774.02
0.8506,-0.0371,-0.1699,-17.195,17.988,-2.683,0.8682,100774.36
0.7925,-0.0107,-0.2334,-26.402,-3.354,-13.659,0.8262,100774.49
0.792,-0.0103,-0.2261,-8.659,-14.024,-18.476,0.8237,100775.09
0.8672,0.001,-0.2852,2.927,-3.902,-14.695,0.9129,100775.67
0.9478,-0.0229,-0.3828,9.451,9.634,-9.024,1.0224,100775.74
0.9971,-0.0083,-0.3706,22.866,19.817,-4.329,1.0638,100774.91
0.9292,0.0273,-0.3989,10.244,11.037,-7.378,1.0116,100775.78
0.9351,0.0049,-0.3652,0.061,-11.098,-14.39,1.0039,100775.82
0.8887,0.0015,-0.4126,-1.707,-8.415,-9.817,0.9798,100775.85
0.9609,0.0903,-0.4478,19.268,4.329,-9.695,1.064,100776.62
1.0391,0.1172,-0.4263,34.024,12.256,-8.354,1.1292,100776.2
1.1431,0.042,-0.46,40.61,18.476,-0.61,1.2329,100776.88
1.2617,-0.2163,-0.0229,46.951,6.037,3.415,1.2803,100776.38
1.1567,-0.1499,0.0713,28.659,-29.756,-1.829,1.1686,100776.29
0.9424,0.0859,-0.04,14.024,-43.415,6.646,0.9471,100775.47
0.7876,0.2173,-0.0527,2.622,-29.573,12.988,0.8187,100774.95
0.7939,0.1655,-0.1616,-26.829,7.256,7.439,0.827,100775.09
0.8872,-0.0229,-0.2178,-44.573,28.659,2.744,0.9138,100774.2
0.9434,-0.083,-0.2148,-56.951,15.854,2.805,0.9711,100774.65
0.9609,-0.0703,-0.2271,-77.683,7.683,5.061,0.9899,100774.86
0.9731,-0.0444,-0.2104,-90.61,-2.073,8.171,0.9966,100775.52
0.9683,0.0361,-0.2124,-98.11,-12.012,19.451,0.9919,100775.02
0.9507,-0.0454,-0.1162,-111.098,-5.244,47.073,0.9588,100775.54
0.9536,-0.0103,-0.064,-128.354,-12.439,41.951,0.9558,100775.3
1.0576,0.0908,-0.1089,-136.098,1.037,46.585,1.0671,100775.35
1.1206,0.1338,-0.0444,-130.732,6.28,60.061,1.1294,100775.02
1.1045,0.0371,0.0078,-146.159,-5.366,63.598,1.1051,100774.77
1.0601,-0.1006,0.0239,-156.341,-14.939,53.902,1.0651,100774.84
0.9409,-0.042,-0.064,-149.817,-1.707,52.622,0.944,100773.89
0.9531,-0.0405,-0.1216,-142.561,27.073,59.39,0.9617,100774.05
1.0562,-0.1206,-0.1382,-144.024,39.39,58.72,1.072,100774.16
1.0732,-0.1367,-0.1592,-143.537,22.927,50.366,1.0936,100774.88
1.021,-0.1084,-0.1216,-137.378,-1.463,38.598,1.0339,100774.2
0.9902,-0.0898,-0.0645,-135.0,-4.085,30.488,0.9964,100773.91
0.9844,-0.0703,-0.1094,-138.598,3.72,25.61,0.9929,100774.32
0.9321,-0.0527,-0.1631,-138.78,12.744,23.415,0.9478,100775.48
0.9512,-0.0977,-0.1846,-133.171,11.463,18.232,0.9738,100775.03
0.9365,-0.1719,-0.1724,-122.866,3.659,13.11,0.9676,100774.3
0.9404,-0.1606,-0.166,-115.915,2.5,6.585,0.9684,100774.26
0.9595,-0.1016,-0.1768,-113.841,2.378,3.963,0.9809,100773.72
0.9399,-0.1104,-0.1675,-109.024,-0.122,7.378,0.9611,100773.95
0.938,-0.1289,-0.1943,-104.756,-1.768,4.085,0.9665,100773.98
0.9819,-0.1323,-0.2827,-100.305,4.756,1.829,1.0304,100774.76
1.0425,-0.1348,-0.3384,-89.573,11.28,3.963,1.1043,100774.09
1.0566,-0.1362,-0.2788,-78.293,5.915,4.329,1.1013,100774.23
1.0845,-0.0596,-0.2163,-60.61,-2.805,8.963,1.1074,100775.19
1.0776,0.0654,-0.0464,-46.28,4.817,25.244,1.0806,100776.28
0.9507,0.1782,-0.0015,-58.72,1.402,25.0,0.9672,100776.36
0.9565,0.3379,0.002,-73.902,-1.463,11.585,1.0145,100776.92
0.9741,0.3306,0.0269,-67.927,12.622,6.524,1.029,100777.59
0.9717,0.1445,-0.0117,-64.817,20.183,-7.439,0.9824,100777.45
0.8867,0.0986,-0.1108,-59.695,3.293,-18.476,0.899,100776.49
0.8525,0.1182,-0.1577,-49.268,-15.0,-18.902,0.875,100775.43
0.8594,0.1094,-0.1162,-46.402,-23.293,-19.268,0.8741,100775.74
0.894,0.1426,-0.1719,-53.659,-17.866,-17.317,0.9215,100774.73
0.9419,0.1763,-0.228,-52.439,-3.72,-6.89,0.985,100774.34
0.9575,0.1885,-0.2661,-45.732,13.11,6.707,1.0115,100774.41
1.0532,0.1641,-0.3149,-43.78,14.573,9.878,1.1115,100775.09
0.9946,0.1274,-0.3618,-42.866,-7.195,14.146,1.066,100775.36
0.8633,0.1768,-0.353,-34.512,-26.159,18.78,0.9493,100775.3
0.9946,0.1592,-0.3589,-36.22,-29.39,16.159,1.0693,100775.76
1.1079,0.1235,-0.376,-34.268,-31.463,14.268,1.1765,100775.48
1.1304,0.2109,-0.436,-32.622,-38.232,9.024,1.2298,100776.39
1.103,0.2432,-0.4619,-50.305,-45.915,7.439,1.2203,100776.96
1.3076,0.0264,-0.0327,-33.963,-52.317,5.854,1.3083,100776.88
1.2183,-0.1636,0.207,6.707,-14.817,21.89,1.2465,100776.94
0.8359,-0.0288,0.0288,25.122,-21.89,28.598,0.8369,100776.28
0.6543,-0.0337,-0.1089,7.195,-39.085,27.927,0.6642,100776.23
0.8008,-0.1113,-0.1587,-20.915,-0.793,21.768,0.8239,100775.98
0.9204,-0.1216,-0.2388,-30.61,32.805,17.256,0.9586,100776.38
0.8525,-0.0649,-0.3071,-17.622,7.256,10.427,0.9085,100776.58
0.7622,-0.0757,-0.2158,-4.451,-10.427,12.012,0.7958,100776.48
0.7671,-0.1348,-0.2466,-7.134,4.695,13.049,0.8169,100776.88
0.8203,-0.1099,-0.3325,-13.11,25.0,3.476,0.8919,100776.2
0.8682,-0.0444,-0.4116,-24.573,31.829,-11.646,0.9618,100776.2
0.9131,-0.0386,-0.4331,-32.317,24.39,-23.476,1.0113,100776.17
1.0078,-0.0732,-0.4229,-15.793,16.829,-23.232,1.0954,100776.16
1.0928,-0.0078,-0.3677,10.305,21.463,-11.768,1.153,100776.04
1.1333,0.0688,-0.3428,14.024,32.073,-3.415,1.186,100776.07
1.2979,-0.0181,-0.1899,7.5,38.415,-1.829,1.3118,100776.09
1.2568,-0.2104,0.1064,17.744,40.915,9.451,1.2788,100776.23
0.9771,-0.1431,0.2085,31.89,39.329,16.159,1.0092,100775.61
0.8564,0.1924,0.1797,31.341,44.085,7.195,0.896,100775.02
0.9731,0.2832,0.0562,0.732,55.976,-8.537,1.0151,100774.43
1.0752,0.0879,-0.1558,-38.232,54.268,-22.195,1.09,100773.89
1.0513,-0.0508,-0.1851,-49.085,23.78,-22.195,1.0686,100774.2
0.8945,-0.0869,0.0137,-20.305,-14.695,-10.488,0.8988,100774.09
0.7505,0.0713,0.0596,-7.622,-24.268,-5.854,0.7562,100774.98
0.7524,0.1411,-0.0464,-20.366,-14.878,-6.829,0.767,100774.16
0.8589,0.0718,-0.1138,-25.854,-5.671,-4.512,0.8694,100774.55
0.9272,0.0693,-0.1182,-21.037,-2.622,4.024,0.9373,100774.59
0.9756,0.1133,-0.103,-21.341,-2.5,15.915,0.9875,100774.12
1.0527,0.0957,-0.1641,-28.354,-13.415,23.476,1.0697,100774.52
1.1387,0.0464,-0.207,-26.768,-21.341,20.183,1.1583,100775.19
1.292,0.1235,-0.3252,-28.537,-14.39,1.585,1.338,100775.82
1.3926,0.147,-0.1758,-42.622,-21.402,-7.134,1.4113,100775.66
1.2837,-0.0562,0.3276,-47.073,-29.329,-2.439,1.326,100775.44
0.9995,-0.0635,0.2349,-5.732,-18.598,14.268,1.0287,100775.03
0.6885,-0.0415,0.0688,26.585,-1.707,39.39,0.6932,100775.34
0.7231,-0.1724,0.104,3.963,23.232,39.573,0.7506,100774.96
0.9189,-0.1753,0.0425,-27.805,45.305,14.085,0.9365,100775.54
0.9976,-0.0625,-0.0801,-29.817,32.622,-8.293,1.0027,100775.62
0.8091,-0.0317,-0.064,-5.732,2.317,0.122,0.8122,100774.67
0.6807,-0.0981,-0.0093,9.146,-5.122,10.488,0.6878,100774.94
0.7471,-0.1128,-0.0811,7.805,9.024,6.159,0.7599,100775.16
0.9043,-0.0854,-0.1577,10.976,27.561,-4.085,0.9219,100775.2
1.0815,-0.062,-0.1826,14.451,29.268,-18.476,1.0986,100776.11
1.207,-0.0884,-0.208,24.634,17.866,-21.159,1.228,100776.9
1.2197,-0.0479,-0.0542,44.024,-0.183,-15.61,1.2219,100776.62
1.2021,0.0293,-0.1729,35.244,-5.061,-11.28,1.2149,100776.17
1.2852,-0.1406,0.1221,24.512,15.854,-4.024,1.2986,100775.09
1.3218,-0.4141,0.4497,25.183,9.756,-6.22,1.4563,100775.64
1.0059,0.063,0.2524,42.073,-37.744,-7.683,1.039,100775.33
0.8735,0.3965,0.2114,39.085,-10.61,1.402,0.9823,100774.85
0.9487,0.1597,0.1235,10.671,31.463,4.634,0.97,100774.59
0.9512,-0.0532,-0.0659,-9.207,33.476,1.463,0.9549,100774.53
0.8838,-0.0737,-0.1021,-9.146,-2.439,-2.378,0.8927,100774.36
0.6733,-0.1025,0.0112,1.037,-30.244,1.463,0.6812,100774.25
0.6079,-0.0713,0.0161,4.329,-19.451,9.573,0.6123,100773.66
0.7622,0.0054,-0.0151,0.427,-0.122,21.585,0.7624,100774.19
0.9487,0.0449,-0.0752,-11.159,11.585,38.293,0.9528,100773.5
1.1113,0.0161,-0.1538,-21.707,10.793,45.427,1.122,100773.34
1.1621,-0.0317,-0.1475,-31.463,-0.793,37.927,1.1719,100772.98
1.2778,-0.042,-0.249,-50.854,-3.537,22.988,1.3025,100773.05
1.4106,-0.0542,-0.3066,-54.268,-20.122,-2.622,1.4446,100774.37
1.4277,-0.1694,0.1372,-44.634,-44.512,-21.22,1.4443,100773.64
1.1367,-0.2192,0.3613,-44.695,-68.902,-30.305,1.2127,100773.66
0.8716,-0.1724,0.1694,-17.927,-45.427,-19.817,0.9045,100773.82
0.7593,-0.146,0.2007,14.451,-14.939,2.195,0.7988,100773.71
0.7354,-0.043,0.0688,-12.073,32.073,6.89,0.7398,100773.01
0.7847,-0.0234,-0.1099,-55.427,57.683,-5.488,0.7927,100773.23
0.8516,-0.0664,-0.1104,-43.415,41.037,-22.134,0.8612,100773.87
0.7476,-0.0684,0.0181,-9.146,12.073,-31.22,0.7509,100774.47
0.8105,-0.0464,-0.1006,1.646,11.707,-36.951,0.8181,100774.58
1.0073,-0.0571,-0.1616,23.598,15.122,-25.854,1.0218,100774.65
1.0474,-0.0889,-0.1519,33.049,8.476,-11.037,1.062,100774.57
1.0703,-0.0308,-0.1753,23.72,0.305,-7.866,1.085,100773.91
1.1821,0.0571,-0.2134,21.524,3.415,-4.329,1.2026,100774.4
1.3008,0.1367,-0.2812,28.171,16.951,4.817,1.3378,100774.64
1.2173,0.0771,-0.1665,36.037,-3.902,0.549,1.231,100775.55
1.167,-0.1694,0.3271,53.354,-10.427,-4.024,1.2238,100775.51
1.061,-0.1191,0.3857,66.89,-32.012,-12.134,1.1352,100776.34
0.9795,0.3408,0.2822,76.89,-52.927,-21.22,1.0748,100776.35
0.8667,0.3926,0.0835,36.098,-14.39,-10.0,0.9551,100776.24
0.8521,0.063,-0.0205,16.829,27.866,-1.098,0.8546,100776.77
0.7671,-0.0356,-0.0093,30.976,22.256,-13.72,0.768,100776.19
0.7471,0.0078,-0.1538,21.098,11.28,-16.951,0.7628,100776.11
0.7803,0.0479,-0.1616,12.134,4.878,-6.463,0.7983,100776.05
0.8921,0.0361,-0.144,-1.463,-10.793,-0.061,0.9044,100775.14
0.9272,0.0117,-0.1353,-13.72,-9.451,6.951,0.9371,100774.96
0.9849,0.0493,-0.3311,-13.902,2.805,23.598,1.0402,100774.7
1.1597,0.0435,-0.2974,1.402,-0.549,31.341,1.198,100775.63
1.2891,-0.0513,-0.2607,-8.598,-22.134,19.512,1.3162,100775.21
1.3394,0.1094,-0.3945,-27.012,-35.976,2.317,1.4005,100775.12
1.3721,0.0552,-0.2461,-41.829,-38.659,-1.89,1.3951,100774.71
1.2183,-0.1934,0.2007,-38.902,-64.451,5.0,1.2497,100774.89
0.9673,-0.2051,0.2344,-23.963,-37.195,4.207,1.0162,100775.15
0.8462,-0.0825,0.1875,21.098,-32.866,15.61,0.8706,100775.59
0.7563,-0.0615,0.123,27.5,-9.024,37.988,0.7688,100775.42
0.6987,-0.1274,0.0229,-12.744,45.183,28.78,0.7106,100775.42
0.7578,-0.0215,-0.2681,-47.988,42.805,0.244,0.8041,100775.3
0.7598,-0.0146,-0.2534,-50.305,27.378,-5.305,0.801,100774.48
0.8008,-0.0625,-0.1938,-35.793,14.756,-6.646,0.8263,100774.47
0.9248,-0.1255,-0.1958,-20.244,25.915,-5.427,0.9536,100774.09
1.0288,-0.0854,-0.2891,-7.378,29.756,-7.988,1.0721,100774.93
1.085,-0.0659,-0.3457,-4.146,12.988,-11.646,1.1406,100775.57
1.0513,-0.1011,-0.2896,-5.854,-15.427,-12.256,1.0951,100775.66
1.0728,-0.104,-0.2969,1.646,-11.22,-1.829,1.1179,100774.87
1.272,0.0254,-0.3784,13.72,14.451,9.207,1.3273,100775.01
1.3398,-0.0547,-0.0562,26.159,32.561,24.939,1.3421,100774.88
1.2656,-0.2388,0.3701,17.317,-17.439,7.012,1.3401,100774.77
1.0044,-0.0093,0.1333,-6.524,-57.195,-15.488,1.0132,100773.82
0.8032,0.3032,0.0361,9.512,-25.0,-5.732,0.8593,100772.88
0.9185,0.2729,0.0825,26.463,28.72,11.037,0.9617,100772.89
0.9473,0.1382,0.0137,20.427,46.524,14.695,0.9574,100773.04
0.8496,0.022,-0.1577,0.305,37.317,2.134,0.8644,100774.27
0.6987,-0.041,-0.1279,1.524,2.927,-8.963,0.7115,100773.84
0.668,-0.0728,-0.0991,11.463,-4.817,-4.573,0.6792,100773.76
0.7769,-0.041,-0.1489,13.902,12.744,3.11,0.7921,100773.45
0.9614,0.0493,-0.1909,14.573,12.744,2.927,0.9814,100774.22
1.1162,0.1089,-0.251,9.878,-4.878,3.293,1.1492,100774.8
1.1362,0.0322,-0.2856,0.122,-11.28,9.207,1.172,100774.98
1.2441,-0.0259,-0.2544,-6.28,-14.451,0.183,1.2701,100775.72
1.376,0.1045,-0.4043,-12.683,-16.037,-6.463,1.4379,100775.79
1.3613,0.0459,-0.2529,-18.415,-30.122,-8.415,1.3854,100776.34
1.2466,-0.2217,0.2612,-17.866,-50.915,-11.951,1.2928,100775.65
1.0215,-0.2417,0.2085,-2.927,-42.134,-16.341,1.0702,100775.25
0.8911,-0.0522,0.0854,30.915,-25.915,-2.744,0.8967,100774.69
0.7549,-0.1665,0.0952,15.671,4.939,17.622,0.7789,100774.4
0.7915,-0.2354,0.0327,-27.134,35.976,2.012,0.8264,100773.45
0.8359,-0.1108,-0.1621,-41.768,31.646,-17.073,0.8587,100773.34
0.7412,-0.0527,-0.1338,-22.195,4.146,-11.402,0.755,100773.65
0.6792,-0.0962,-0.0503,-12.683,-1.646,-2.866,0.6878,100774.23
0.7637,-0.0737,-0.1353,-16.341,14.39,-8.659,0.7791,100774.2
0.9502,-0.0664,-0.2979,-9.024,43.293,-6.707,0.998,100774.92
1.0752,-0.0503,-0.3496,6.829,39.024,-6.159,1.1317,100775.08
1.0503,-0.082,-0.2773,-1.341,-24.39,-23.537,1.0894,100776.34
1.2939,-0.0308,-0.3408,24.634,-4.634,-7.5,1.3384,100776.3
1.4189,0.0796,-0.3921,51.463,32.805,26.22,1.4743,100775.72
1.3574,-0.042,-0.1533,35.549,40.854,36.037,1.3667,100775.17
1.2085,-0.2905,0.2886,30.976,-6.829,11.524,1.276,100775.15
1.0088,-0.126,0.3164,37.561,-32.134,-4.878,1.0647,100774.02
0.8223,0.249,0.2476,44.512,-31.463,4.817,0.8941,100773.16
0.7158,0.3647,0.1895,45.488,-12.622,19.634,0.8254,100773.77
0.6831,0.1372,0.0908,20.366,45.061,24.634,0.7026,100774.3
0.7827,-0.0596,-0.1196,-15.671,67.378,-3.049,0.794,100774.23
0.896,-0.0581,-0.1948,-17.012,40.0,-20.488,0.9188,100773.94
0.9023,-0.0469,-0.0996,-13.537,29.39,-17.439,0.909,100775.21
0.9702,0.0112,-0.1187,-25.0,24.329,-14.085,0.9775,100774.8
1.0078,0.0366,-0.1187,-13.963,-3.232,-8.78,1.0154,100774.74
0.9541,0.0332,-0.1064,-0.976,-20.366,0.671,0.9606,100774.57
1.0186,0.0254,-0.2061,-7.439,-17.195,3.354,1.0395,100774.83
1.1577,-0.0049,-0.1924,-17.378,-26.22,-3.659,1.1736,100774.27
1.2471,0.1123,-0.271,-26.037,-27.256,-1.22,1.2811,100774.47
1.4258,0.1118,-0.2812,-35.549,-6.28,6.28,1.4576,100774.49
1.3203,-0.104,0.0747,-35.427,-33.476,4.146,1.3265,100774.88
1.1255,-0.2305,0.2954,-29.146,-60.915,-13.841,1.1862,100774.2
0.9023,-0.1313,0.1919,-24.817,-40.122,-18.72,0.9318,100773.79
0.8237,-0.1113,0.167,-9.817,-9.817,-9.695,0.8478,100773.52
0.73,-0.082,0.0503,-12.683,-6.463,-5.854,0.7363,100773.92
0.7217,-0.0317,-0.0898,-16.037,13.537,-6.707,0.7279,100775.09
0.7808,0.0166,-0.1548,-13.476,29.39,-4.268,0.7961,100775.25
0.7402,-0.002,-0.0894,-9.39,16.098,-1.463,0.7456,100774.37
0.7827,-0.0493,-0.1255,-6.037,12.805,1.829,0.7942,100774.55
0.9409,-0.0928,-0.2212,-0.488,31.89,5.671,0.971,100774.47
1.0605,-0.1074,-0.2373,7.195,30.732,-2.744,1.0921,100774.77
1.208,-0.0859,-0.2388,3.659,15.732,-13.476,1.2344,100774.48
1.2358,0.0054,-0.2783,7.256,-9.512,-15.0,1.2668,100774.41
1.1885,0.0981,-0.2729,21.28,-18.537,-12.195,1.2234,100773.86
1.2637,0.0601,-0.3203,22.317,17.195,4.817,1.305,100774.29
1.2563,-0.0347,-0.0576,8.659,30.244,11.159,1.2581,100774.76
1.0767,-0.123,0.3008,8.049,-35.732,-3.171,1.1246,100774.85
0.8784,-0.0005,0.165,25.061,-67.561,-9.634,0.8938,100774.92
0.8115,0.2393,0.1812,45.305,-30.732,-6.646,0.8652,100773.88
0.7783,0.2832,0.1201,41.402,11.524,-2.256,0.8369,100774.31
0.8013,0.1055,-0.0171,20.732,60.549,8.049,0.8084,100773.53
0.833,-0.0356,-0.1479,-8.476,56.22,2.012,0.8468,100773.31
0.8276,-0.063,-0.1611,-11.768,10.0,-9.207,0.8455,100773.04
0.8716,-0.0142,-0.1367,-0.793,1.951,-9.085,0.8824,100773.81
0.9473,0.123,-0.1631,-8.476,5.0,-7.012,0.969,100774.0
0.9741,0.1479,-0.1895,-19.756,-17.5,-4.39,1.0033,100774.29
1.0444,0.1333,-0.2261,-22.439,-6.951,10.183,1.0769,100773.88
1.2197,0.0659,-0.2451,-38.659,7.744,14.085,1.2459,100774.2
1.2559,0.0669,-0.2974,-42.927,-19.329,0.427,1.2923,100775.18
1.3828,0.2788,-0.27,-31.89,-12.378,0.122,1.4363,100775.17
1.2388,0.0454,-0.0049,-26.768,-1.768,16.646,1.2396,100775.07
1.0737,-0.2378,0.2886,-25.061,-38.598,10.488,1.137,100775.24
0.9067,-0.187,0.1313,-33.049,-44.39,-1.707,0.9351,100775.73
0.8809,-0.1885,0.0786,-17.317,-22.805,4.512,0.9042,100774.86
0.7905,-0.1812,0.1045,-0.793,-0.671,15.122,0.8177,100774.46
0.752,-0.0762,0.0537,-4.695,22.317,12.744,0.7577,100774.66
0.8398,-0.0146,-0.1108,-14.634,32.866,8.293,0.8473,100774.82
0.7798,-0.0454,-0.0601,-5.976,15.061,8.598,0.7834,100775.06
0.7739,-0.0332,-0.0693,-5.183,5.122,2.561,0.7777,100774.52
0.9375,-0.0522,-0.1562,-15.122,37.866,5.244,0.9519,100774.47
1.0781,-0.1641,-0.2812,-11.341,42.622,8.963,1.1262,100775.16
1.1084,-0.1245,-0.332,-0.549,19.573,4.329,1.1637,100775.45
1.1104,-0.0908,-0.2739,0.244,-10.915,-3.659,1.1472,100775.28
1.1724,-0.0522,-0.2183,-0.671,-16.22,-4.451,1.1937,100774.54
1.2593,0.0459,-0.2432,18.11,13.11,12.073,1.2834,100774.72
1.2749,-0.1025,-0.0386,31.098,22.073,24.756,1.2796,100774.38
1.0913,-0.3745,0.3325,25.793,-32.561,-0.305,1.2007,100774.6
0.8516,-0.082,0.1514,23.537,-88.963,-37.195,0.8688,100774.41
0.9165,0.208,0.2021,34.146,-59.573,-37.256,0.9613,100774.5
0.9775,0.2749,0.1543,22.622,-3.963,-5.305,1.0271,100774.44
0.8667,0.1792,-0.0742,-0.915,57.073,18.11,0.8881,100773.92
0.7939,0.0352,-0.0972,-5.061,55.549,7.927,0.8006,100773.91
0.6924,-0.0249,-0.0527,-7.439,9.634,-2.134,0.6948,100772.77
0.6968,-0.061,-0.1045,-8.293,4.695,-3.841,0.7072,100772.77
0.8452,-0.0552,-0.1509,-0.122,17.012,-4.695,0.8603,100773.52
1.0137,0.0317,-0.2246,3.72,12.378,-9.634,1.0387,100773.95
1.1177,0.1416,-0.252,10.061,-2.927,-2.866,1.1544,100774.39
1.1401,0.1089,-0.2402,9.939,-19.146,9.268,1.1702,100774.59
1.1821,-0.0518,-0.2109,-0.366,-31.585,6.159,1.2019,100773.78
1.2876,-0.0039,-0.3125,-12.012,-23.354,-1.341,1.325,100773.52
1.3438,0.1982,-0.3447,-21.524,1.341,6.951,1.4014,100773.95
1.2988,-0.1353,0.1929,-28.902,-21.098,4.39,1.32,100774.28
0.9829,-0.2871,0.2754,-23.963,-74.573,-13.841,1.0604,100774.52
0.7612,-0.1304,0.0918,9.634,-48.354,-10.61,0.7778,100774.83
0.7031,-0.1191,0.1465,27.683,-0.488,12.195,0.728,100774.82
0.7607,-0.0986,0.0825,13.841,52.866,12.988,0.7715,100774.8
0.9429,0.0137,-0.1914,-18.659,77.744,-8.598,0.9622,100775.15
0.9478,0.0283,-0.2192,-35.976,51.28,-20.793,0.9732,100775.43
0.7451,-0.0723,-0.123,-24.268,4.207,-15.0,0.7587,100775.24
0.8198,-0.1309,-0.1582,-8.841,1.463,-10.0,0.8451,100775.23
0.9629,-0.1304,-0.2607,10.183,18.841,-1.646,1.0061,100776.11
1.0654,-0.0967,-0.2622,26.402,17.5,-0.427,1.1015,100776.36
1.1299,-0.0317,-0.2944,15.427,0.976,-6.524,1.168,100775.71
1.2539,0.0063,-0.2681,11.646,-20.854,-6.524,1.2823,100775.48
1.2402,0.041,-0.2778,19.634,-22.805,2.988,1.2716,100774.67
1.3481,0.127,-0.231,37.378,2.378,2.805,1.3737,100774.8
1.2583,-0.1543,0.4033,45.305,12.866,21.22,1.3303,100775.03
0.9751,-0.2529,0.3105,15.915,-38.049,18.78,1.0541,100774.84
0.8115,0.0425,0.1084,24.085,-37.317,3.902,0.8198,100775.07
0.8496,0.2251,0.1055,40.122,-23.293,-2.317,0.8852,100774.75
0.8384,0.1616,-0.0234,34.146,44.146,7.378,0.8541,100774.49
0.9858,0.0059,-0.1401,9.39,75.671,-2.988,0.9958,100774.18
0.7881,-0.0483,-0.1201,2.256,4.756,-17.622,0.7987,100773.31
0.6475,-0.0078,-0.0332,5.061,-36.159,-25.976,0.6484,100773.04
0.7305,0.0161,-0.0659,-4.512,-14.329,-18.72,0.7336,100773.21
0.9136,0.0176,-0.0767,-8.11,12.988,-3.537,0.917,100773.98
1.1343,0.0586,-0.1597,-23.293,21.707,6.585,1.147,100775.14
1.1074,0.0757,-0.4399,-37.134,5.671,7.5,1.194,100775.16
1.1484,0.0923,-0.4194,-8.72,-19.817,-1.768,1.2261,100775.2
1.2749,0.1182,-0.3315,-1.28,-29.634,-5.671,1.3226,100775.97
1.2808,0.1157,-0.4424,-10.427,-30.0,-5.0,1.3599,100775.66
1.4238,-0.0044,-0.0098,1.768,-52.439,3.476,1.4239,100775.69
1.1001,-0.2861,0.3521,-14.207,-91.524,26.28,1.19,100775.81
0.7856,-0.2305,0.1328,-27.378,-63.11,7.195,0.8295,100775.31
0.7437,-0.1533,0.0049,-3.72,-13.476,0.0,0.7593,100775.43
0.8096,-0.1128,0.0107,16.707,34.329,17.012,0.8175,100775.51
0.8564,-0.0747,-0.0386,-21.89,68.171,12.378,0.8606,100775.2
0.7764,-0.0405,-0.1421,-58.78,57.317,-2.927,0.7903,100775.11
0.686,-0.0342,-0.1509,-47.927,43.78,-6.037,0.7033,100775.28
0.7793,-0.002,-0.147,-29.878,45.61,-5.854,0.793,100774.68
0.9805,-0.0591,-0.3022,-14.512,63.72,6.646,1.0277,100774.59
1.1294,-0.1113,-0.3003,16.646,61.707,19.085,1.1739,100775.48
1.2212,-0.1328,-0.2334,24.268,27.073,8.415,1.2504,100774.7
1.1743,-0.0723,-0.1201,25.671,-14.634,-4.939,1.1827,100775.71
1.168,0.0371,-0.1978,20.854,-11.22,-1.463,1.1852,100776.09
1.042,-0.1504,0.3652,29.634,-56.402,-3.72,1.1143,100775.66
0.7676,0.1665,0.2871,42.927,-37.988,2.195,0.8363,100774.57
0.7397,0.2832,0.1089,27.744,11.098,-1.037,0.7996,100774.87
0.8467,0.1157,0.0034,15.549,67.744,-2.683,0.8546,100774.59
0.856,0.0103,0.0156,-1.22,60.366,-18.537,0.8562,100774.41
0.8438,-0.0459,0.0137,-13.171,24.146,-29.024,0.8451,100774.39
0.8384,-0.0117,-0.0439,-1.951,21.768,-13.659,0.8396,100775.11
0.8892,0.0684,-0.0679,6.524,25.366,-0.244,0.8944,100774.91
1.0122,0.0972,-0.063,2.805,18.415,2.134,1.0188,100775.12
1.0962,0.1465,-0.1367,2.256,-3.476,-4.878,1.1144,100775.68
1.2129,0.1245,-0.0547,5.488,-13.11,-8.049,1.2205,100775.7
1.2974,0.0991,-0.144,-0.854,-30.732,-8.354,1.3091,100776.21
1.3921,0.165,-0.3086,2.439,-45.427,-13.232,1.4354,100775.62
1.3013,-0.0112,0.0547,-2.378,-47.988,-13.902,1.3025,100775.67
1.0581,-0.1226,0.5059,-21.159,-51.098,-7.195,1.1792,100776.57
0.938,-0.1079,0.311,-22.805,-32.195,1.037,0.9941,100776.12
0.7217,-0.1372,0.1973,11.829,-2.805,28.78,0.7606,100775.55
0.6772,-0.1528,0.2271,13.354,42.317,41.402,0.7305,100775.11
0.8428,-0.1084,0.1138,-30.122,81.646,17.866,0.8573,100774.77
0.9463,-0.0767,-0.021,-49.024,42.683,-20.305,0.9496,100774.3
0.8208,-0.022,0.0557,-27.561,6.22,-22.073,0.823,100774.45
0.7451,-0.041,0.019,-29.329,13.171,-9.878,0.7465,100775.66
0.9375,-0.1191,-0.0889,-25.244,30.061,0.488,0.9492,100775.95
1.1021,-0.0273,-0.0679,12.744,-3.659,-4.39,1.1045,100776.29
1.1128,0.0112,-0.0303,10.793,-2.317,-10.183,1.1133,100775.94
1.2026,0.0483,-0.0825,14.207,3.902,-5.549,1.2064,100776.39
1.2383,0.0601,-0.1436,19.451,0.183,3.72,1.248,100777.12
1.2656,-0.1489,0.1509,19.268,0.366,7.317,1.2833,100777.54
1.3013,-0.3315,0.5713,20.061,2.012,7.866,1.4593,100776.99
0.9351,0.0483,0.354,26.89,-43.963,3.11,1.001,100776.95
0.7212,0.4185,0.3364,34.878,-20.488,14.512,0.8991,100777.04
0.75,0.3755,0.1992,12.5,41.768,20.61,0.8621,100776.5
0.9546,0.041,-0.0381,-0.366,36.89,-0.671,0.9562,100775.84
0.9507,-0.0518,-0.0547,2.805,-13.659,-17.927,0.9537,100775.48
0.7812,-0.085,0.0078,12.622,-32.988,-16.829,0.7859,100776.45
0.7622,0.0088,-0.0073,26.89,-25.854,-15.976,0.7623,100775.7
0.8755,0.1274,-0.0146,23.049,-26.951,-17.988,0.8848,100774.5
0.9746,0.1421,-0.0757,11.707,-23.232,-5.671,0.9878,100774.6
0.9717,0.1445,-0.1724,13.415,-9.695,19.024,0.9974,100774.56
1.0688,0.0806,-0.1279,11.89,2.805,30.61,1.0795,100774.65
1.2329,0.0308,-0.1372,-7.927,-4.451,9.329,1.2409,100774.46
1.4321,0.1421,-0.2988,-28.598,-9.024,-20.427,1.4699,100774.22
1.3662,-0.0068,-0.1421,-33.537,-29.329,-25.366,1.3736,100774.4
1.106,-0.1562,0.5122,-15.793,-65.671,-19.268,1.2288,100774.27
0.9126,-0.1401,0.3462,-16.22,-30.793,-9.39,0.9861,100774.52
0.7739,-0.0571,0.1411,18.902,13.232,13.537,0.7888,100775.09
0.8062,-0.0742,0.0991,9.695,47.988,24.268,0.8156,100775.15
0.9038,-0.0874,-0.0405,-38.049,2.439,-20.549,0.9089,100774.3
0.7783,-0.0347,-0.0298,-13.902,-3.598,-5.976,0.7797,100774.09
0.749,-0.0249,-0.0039,-5.244,4.817,1.341,0.7494,100773.91
0.9106,-0.0723,-0.0698,-7.317,19.817,-1.646,0.9162,100773.42
1.0913,-0.0625,-0.23,-5.0,24.939,-6.524,1.117,100774.77
1.1138,-0.0176,-0.2573,2.317,5.183,-12.744,1.1432,100774.18
1.1104,-0.0073,-0.1553,15.122,-5.671,-6.402,1.1212,100774.58
1.124,-0.0156,-0.0571,29.939,5.061,12.134,1.1256,100774.53
1.1914,0.1079,-0.105,29.878,14.146,16.463,1.2009,100774.97
1.2456,0.0088,0.0181,19.817,20.915,16.22,1.2458,100775.2
1.231,-0.2402,0.4194,14.878,7.927,14.146,1.3225,100775.35
0.9229,-0.124,0.3882,21.707,-29.573,10.488,1.0088,100776.22
0.772,0.2896,0.2188,25.061,-17.012,9.756,0.853,100775.0
0.772,0.2896,0.2188,25.061,-17.012,9.756,0.853,100773.99
0.7979,0.2837,0.0947,11.159,20.549,7.805,0.8521,100773.73
0.9741,0.0791,0.0176,-12.256,27.561,-15.244,0.9775,100773.38
0.9761,0.0049,-0.1182,-30.427,-2.866,-31.524,0.9832,100774.62
0.8403,-0.0488,-0.0459,-4.512,-23.598,-20.366,0.843,100774.43
0.8198,0.021,-0.0337,11.768,-11.951,-3.293,0.8208,100775.05
0.8896,0.1187,-0.1406,4.146,-14.451,1.463,0.9085,100774.62
0.917,0.1074,-0.1538,-0.122,-16.28,6.524,0.936,100775.05
0.96,0.0869,-0.1782,-2.805,-14.146,4.329,0.9802,100775.24
1.0947,0.0283,-0.2095,-9.207,-24.573,1.89,1.1149,100774.91
1.082,-0.0044,-0.2515,-7.195,-38.171,2.622,1.1109,100775.02
1.2163,0.1235,-0.2861,-7.439,-24.817,-5.976,1.2556,100775.36
1.354,0.1772,-0.3022,-29.451,-15.549,-12.012,1.3986,100775.13
1.2061,0.0537,0.0356,-64.024,-41.646,-14.634,1.2078,100775.19
1.0127,-0.1099,0.2388,-59.024,-54.268,-21.28,1.0462,100774.74
0.8867,-0.1128,0.1714,3.415,-16.341,-7.378,0.9101,100774.78
0.791,-0.0688,0.2319,43.049,45.0,32.378,0.8272,100775.42
0.9146,-0.0176,0.0532,-6.037,73.354,26.524,0.9163,100776.03
1.0371,0.0044,-0.1294,-60.915,42.195,-8.354,1.0452,100775.99
0.7891,-0.0049,-0.186,-51.829,-10.427,-15.732,0.8107,100775.22
0.6382,-0.041,-0.0591,-4.756,-20.122,-2.622,0.6422,100774.88
0.7881,-0.0654,-0.0557,10.915,14.085,8.598,0.7928,100774.38
0.9897,-0.0151,-0.2378,15.427,35.549,13.293,1.018,100775.38
1.1821,-0.0024,-0.2969,12.317,17.622,0.183,1.2188,100775.01
1.1782,-0.0527,-0.2373,3.537,-13.537,-13.293,1.203,100774.84
1.188,-0.0161,-0.1719,14.39,-15.305,-8.049,1.2005,100775.09
1.2837,0.0449,-0.1992,25.61,-7.744,7.561,1.2998,100775.04
1.3496,-0.0791,0.1294,23.72,-1.28,17.744,1.3581,100774.88
1.0991,-0.1045,0.2852,7.134,-35.427,6.89,1.1403,100775.52
0.8159,0.2026,0.2085,13.476,-37.622,6.646,0.8662,100775.01
0.7593,0.3745,0.0845,13.232,-8.232,6.951,0.8508,100774.98
0.7988,0.1763,-0.0806,9.451,26.524,1.768,0.822,100775.98
0.9668,-0.0386,-0.1816,0.976,20.488,-19.146,0.9845,100775.98
0.8818,-0.0225,-0.1768,-10.732,-23.354,-31.402,0.8997,100775.62
0.7593,0.0161,-0.1533,-3.232,-30.122,-19.207,0.7748,100775.32
0.7695,0.103,-0.1479,2.317,-20.061,-11.341,0.7904,100775.86
0.9019,0.1504,-0.2725,-8.72,-7.5,-7.439,0.954,100776.37
0.9829,0.1562,-0.4014,-7.195,-7.195,-0.549,1.0731,100776.52
1.0176,0.1455,-0.3726,-6.28,-14.756,1.646,1.0934,100776.39
1.0264,0.1123,-0.3306,-15.976,-33.293,1.037,1.0841,100777.01
1.1343,0.189,-0.4268,-16.28,-22.073,4.634,1.2265,100776.99
1.3296,0.1909,-0.4492,-21.463,-4.939,0.427,1.4164,100776.87
1.249,0.0474,-0.0034,-38.659,-39.085,-14.39,1.2499,100776.39
1.041,-0.0049,0.0972,-28.537,-39.207,-8.415,1.0456,100776.79
0.9263,-0.0522,0.0571,23.902,3.963,17.256,0.9295,100775.85
0.8501,-0.1104,0.0728,36.463,36.402,33.415,0.8603,100776.37
1.0024,-0.0796,-0.0796,-7.683,63.354,26.159,1.0087,100776.39
0.9736,-0.0977,-0.2456,-35.976,22.256,3.293,1.0089,100776.28
0.6934,-0.0547,-0.1851,-18.293,-11.098,0.427,0.7197,100776.2
0.6382,-0.0435,-0.124,-8.78,-9.39,2.378,0.6516,100776.13
0.7871,-0.104,-0.1318,-11.22,3.232,5.427,0.8048,100776.59
0.9058,-0.0957,-0.2393,-15.061,-4.329,2.439,0.9417,100776.45
0.9839,-0.0918,-0.439,-14.512,-1.951,-5.305,1.0813,100777.31
1.1128,-0.0283,-0.4497,3.476,3.598,-7.805,1.2006,100778.09
1.2017,0.0264,-0.3652,9.146,-5.427,-2.866,1.2562,100777.05
1.2104,0.0386,-0.3833,5.976,-6.89,3.476,1.2703,100776.54
1.2129,-0.0469,-0.1885,15.854,-4.268,4.329,1.2283,100775.89
1.1978,-0.1631,0.1846,10.183,-14.634,-5.427,1.2228,100775.06
0.9395,0.1133,0.0776,1.22,-17.805,-0.915,0.9494,100775.41
0.8232,0.2861,0.0444,18.598,24.268,19.451,0.8727,100774.33
0.9458,0.2593,-0.0117,14.085,58.232,10.976,0.9808,100775.59
1.02,0.1104,-0.2583,-5.122,51.585,-4.024,1.058,100775.44
0.9561,0.0142,-0.1836,-1.646,23.537,-1.646,0.9736,100775.45
0.7886,0.0176,-0.1255,-0.732,-3.902,-2.073,0.7987,100775.82
0.7437,0.0649,-0.1392,0.854,-10.427,-5.671,0.7593,100776.35
0.7983,0.0703,-0.1851,0.854,-5.427,-1.098,0.8225,100775.76
0.8931,0.1113,-0.2578,-1.463,-2.317,1.463,0.9362,100775.18
0.981,0.103,-0.2939,-5.854,-4.329,4.329,1.0292,100775.88
1.0181,0.0522,-0.2603,-13.78,-11.707,9.573,1.0521,100775.16
1.0435,0.043,-0.2734,-12.439,-22.927,9.207,1.0795,100775.86
1.2559,0.1543,-0.4136,-5.732,-7.988,0.915,1.3312,100776.76
1.3335,0.1133,-0.4409,-25.122,-2.622,-8.049,1.4091,100775.95
1.1748,-0.0215,0.062,-35.061,-37.866,-15.122,1.1766,100775.33
1.0171,-0.0674,0.1567,-20.732,-42.683,-11.098,1.0313,100775.11
0.8521,-0.1372,0.1064,19.329,-7.256,7.744,0.8696,100775.71
0.7764,-0.1851,0.0923,35.671,35.427,30.549,0.8034,100775.41
0.9277,-0.1587,-0.041,2.012,63.232,27.683,0.9421,100775.55
1.0039,-0.1455,-0.2114,-32.561,39.451,0.732,1.0362,100775.9
0.8408,-0.0771,-0.1548,-18.659,9.207,-5.61,0.8584,100776.05
0.709,-0.0332,-0.0972,-9.756,8.232,-2.134,0.7164,100775.8
0.793,-0.0859,-0.1157,-14.207,20.976,-1.951,0.806,100775.59
0.9189,-0.1274,-0.2124,-8.78,31.037,1.341,0.9517,100775.44
1.0151,-0.0898,-0.252,5.854,24.878,-3.78,1.0498,100775.68
1.0991,-0.0747,-0.188,10.854,14.756,-11.22,1.1176,100775.77
1.2236,-0.0728,-0.1382,13.232,19.817,-0.793,1.2336,100776.19
1.2959,-0.0479,-0.2153,19.756,13.232,10.366,1.3145,100776.88
1.2773,-0.1157,-0.1787,16.829,-3.841,11.524,1.295,100776.66
1.1948,-0.2632,0.1709,7.927,-21.646,14.451,1.2353,100776.98
1.0308,-0.1289,0.2329,16.89,-33.354,10.488,1.0646,100775.88
0.8525,0.2041,0.1895,39.329,-5.61,20.244,0.8969,100776.28
0.7485,0.3184,0.1646,24.756,28.171,22.561,0.8299,100775.47
0.9907,0.1475,-0.0996,-11.341,38.963,-8.841,1.0066,100775.98
1.0933,-0.0581,-0.2017,-18.537,18.171,-25.366,1.1132,100775.98
0.8472,-0.125,-0.0356,-9.085,-30.854,-25.488,0.8571,100776.24
0.6685,-0.0542,-0.041,-3.293,-23.598,-17.317,0.6719,100775.45
0.6982,0.0352,-0.083,0.305,-8.659,-11.341,0.704,100774.98
0.8047,0.0679,-0.1304,-7.439,-1.098,-5.915,0.818,100775.87
0.999,0.1099,-0.2485,-9.329,6.646,4.268,1.0353,100775.27
1.1304,0.1089,-0.2993,-0.183,4.085,19.207,1.1744,100775.72
1.1377,0.0566,-0.2998,4.817,-20.061,21.646,1.1779,100775.91
1.2568,0.0176,-0.2837,-1.463,-45.793,4.939,1.2886,100776.3
1.3218,0.0347,-0.2856,-14.451,-35.122,-5.0,1.3527,100776.36
1.3047,-0.0088,-0.0127,-24.634,-5.122,-6.646,1.3048,100776.39
1.124,-0.0825,0.2388,-18.598,-19.085,-20.915,1.1521,100776.43
0.9253,-0.0381,0.1309,7.134,-9.756,-9.878,0.9353,100776.07
0.6958,-0.1064,0.1206,13.72,23.232,19.329,0.7142,100776.05
0.77,-0.1123,0.0244,-11.22,44.268,12.073,0.7785,100775.18
0.9399,-0.1328,-0.0635,-19.695,39.756,-5.793,0.9514,100775.62
0.9771,-0.0854,-0.0625,0.366,33.11,-3.11,0.9828,100775.59
0.7661,-0.0103,-0.0337,10.366,17.744,3.11,0.7669,100775.59
0.8071,-0.0435,-0.1118,6.402,16.22,0.976,0.816,100775.2
0.9478,-0.1104,-0.2104,19.512,20.732,0.244,0.9771,100775.9
1.0356,-0.124,-0.2207,30.61,8.78,-5.61,1.0661,100776.3
1.0459,-0.1162,-0.1343,20.793,-5.122,-15.244,1.0609,100775.87
1.1104,-0.043,-0.1294,12.073,-0.366,-10.61,1.1187,100776.03
1.2666,0.0645,-0.2822,14.024,12.805,2.378,1.2993,100775.81
1.2666,0.0288,-0.2397,27.256,-2.5,-0.061,1.2894,100775.88
1.1846,-0.21,0.2163,33.049,-30.854,-9.268,1.2223,100775.95
1.0464,-0.2427,0.4106,33.963,-35.305,-4.451,1.15,100776.59
0.9238,0.1304,0.2744,32.927,-6.646,5.976,0.9725,100775.96
0.9263,0.3252,0.1958,20.793,41.037,13.476,1.001,100776.12
0.8989,0.1504,-0.0376,-1.585,47.622,9.207,0.9122,100776.25
0.7954,-0.0332,-0.1504,2.134,4.268,-5.854,0.8102,100776.58
0.6733,-0.0776,-0.002,14.512,-22.195,-17.195,0.6778,100776.7
0.7002,-0.0474,0.0249,4.878,6.646,-14.207,0.7022,100775.66
0.8794,0.0254,-0.0811,-8.72,32.744,-2.256,0.8835,100776.04
1.0215,0.0591,-0.1206,-10.671,24.451,2.988,1.0303,100776.18
1.0854,0.0737,-0.1558,-7.317,2.805,-1.768,1.099,100775.9
1.1724,0.0859,-0.1411,-8.476,1.28,2.012,1.1839,100775.57
1.2183,0.0879,-0.1694,-14.756,-16.951,0.915,1.2331,100776.3
1.2944,0.1733,-0.291,-15.915,-39.146,-8.598,1.338,100776.25
1.376,0.0547,-0.0659,-23.049,-25.915,-16.159,1.3786,100776.98
1.2119,-0.0786,0.3179,-35.183,-32.866,-14.756,1.2554,100776.25
1.0249,-0.1611,0.2705,-18.902,-32.927,0.854,1.0722,100775.73
0.8208,-0.2246,0.2305,14.024,-7.317,19.756,0.8816,100775.33
0.748,-0.2271,0.1631,6.585,30.732,28.476,0.7986,100776.38
0.9058,-0.083,-0.0645,-37.439,10.671,-7.5,0.9118,100775.66
0.7158,-0.0278,-0.0337,-31.402,-26.098,-19.207,0.7172,100776.5
0.7124,0.0015,0.0034,-20.0,-5.61,-9.634,0.7124,100777.28
0.8643,-0.0664,-0.1069,-11.22,24.39,3.171,0.8734,100778.1
1.0464,-0.0864,-0.2363,5.305,28.293,-0.122,1.0762,100777.95
1.0957,-0.0884,-0.1685,11.89,8.72,-12.256,1.1121,100776.75
1.0513,-0.0767,-0.0972,-0.244,-12.866,-18.963,1.0585,100776.23
1.1318,0.0068,-0.147,3.293,-1.524,-5.793,1.1414,100776.21
1.2661,0.0249,-0.2173,14.573,21.037,11.89,1.2849,100776.43
1.3345,-0.1201,0.0005,7.866,9.329,2.195,1.3399,100776.6
1.2969,-0.145,0.2671,-0.976,-30.854,-13.11,1.332,100775.86
1.0542,0.0312,0.1968,-0.061,-68.72,-1.524,1.0729,100775.81
0.7773,0.1626,0.209,8.11,-27.927,27.927,0.8212,100775.9
0.7363,0.1763,0.2598,31.28,30.061,31.098,0.8005,100776.33
0.9243,0.1836,0.0073,26.22,60.122,13.476,0.9424,100776.41
0.9585,0.0215,-0.2036,1.098,46.463,-2.561,0.9801,100775.72
0.8267,-0.105,-0.0903,-4.085,-18.11,-20.976,0.8382,100776.32
0.7651,-0.0762,-0.1064,1.646,-17.195,-17.744,0.7763,100776.27
0.7905,0.0112,-0.0967,10.732,-14.451,-8.902,0.7965,100776.86
0.8813,-0.0034,-0.1011,5.488,-15.183,-2.073,0.8871,100777.55
1.0186,0.0195,-0.2163,-5.732,-1.524,6.524,1.0415,100778.69
1.1992,0.0737,-0.2163,-13.78,-6.646,7.073,1.2208,100778.05
1.2095,0.0386,-0.2568,-23.476,-27.561,1.098,1.237,100777.55
1.3374,0.1343,-0.3579,-19.207,-21.159,-7.256,1.391,100778.2
1.3174,0.0557,-0.0879,-16.22,-20.976,-6.037,1.3215,100776.94
1.1108,-0.0874,0.272,-30.915,-39.085,-6.524,1.147,100776.62
0.9614,-0.0801,0.1592,-26.22,-28.11,-1.098,0.9778,100775.99
0.8179,-0.1875,0.1646,4.207,0.305,14.085,0.8551,100776.67
0.8228,-0.2451,0.1748,6.28,41.098,17.256,0.8761,100776.18
0.9033,-0.1416,-0.0107,-23.841,61.341,5.793,0.9144,100776.05
0.8843,-0.0801,-0.0483,-29.024,21.585,-11.646,0.8892,100776.44
0.7085,-0.0054,0.0215,-17.683,2.195,-10.915,0.7088,100775.74
0.7031,0.0225,-0.0229,-20.244,15.122,-5.793,0.7039,100775.62
0.8447,-0.0864,-0.0752,-19.695,31.22,0.488,0.8525,100776.38
1.0122,-0.166,-0.1333,-7.927,30.915,0.366,1.0344,100776.31
1.0884,-0.1045,-0.2207,-3.11,21.829,-4.39,1.1154,100776.89
1.1387,-0.0674,-0.1987,-7.439,9.268,-13.537,1.1578,100777.45
1.1055,-0.0605,-0.1489,-5.244,-1.159,-13.963,1.1171,100777.12
1.271,0.0596,-0.2046,6.037,13.293,-11.463,1.2887,100777.49
1.4111,0.0747,-0.2798,8.476,13.354,-17.988,1.4405,100778.26
1.3555,-0.1353,0.0962,13.902,-11.341,-20.122,1.3656,100778.23
1.1753,-0.1792,0.4077,13.78,-26.707,-6.951,1.2568,100778.34
0.8418,0.0894,0.3232,8.78,-37.744,1.402,0.9061,100777.67
0.7969,0.3013,0.2983,1.28,-25.976,8.11,0.9027,100777.05
0.8193,0.3359,0.2466,2.561,12.256,19.024,0.9192,100776.73
0.8579,0.2046,-0.0454,-11.28,50.244,9.024,0.8831,100776.83
0.8203,0.0264,-0.0713,-9.817,4.573,-10.671,0.8238,100777.53
0.6943,-0.0298,-0.042,-11.524,-22.439,-11.098,0.6962,100777.05
0.7402,0.0107,-0.0894,-7.988,-2.866,0.0,0.7457,100777.8
0.8975,0.0527,-0.0791,-1.28,12.073,10.244,0.9025,100777.4
1.0171,0.106,-0.1006,-1.341,8.476,12.622,1.0275,100777.97
0.9819,0.1167,-0.1514,-4.085,-1.098,11.707,1.0004,100776.67
1.0728,0.1104,-0.1909,-10.427,2.256,8.78,1.0952,100776.05
1.2612,0.0986,-0.2207,-12.256,-12.012,-2.927,1.2842,100776.72
1.3911,0.1445,-0.2505,-8.476,-22.561,-8.415,1.4209,100776.84
1.3506,0.1304,-0.0044,-13.415,-22.012,0.366,1.3569,100776.86
1.2358,-0.0073,0.3286,-26.646,-28.049,0.122,1.2788,100776.94
0.9829,-0.1113,0.2402,-4.268,-27.988,-0.549,1.0179,100776.89
0.7783,-0.2183,0.2588,27.195,-5.915,10.61,0.8488,100776.37
0.7822,-0.1519,0.145,10.122,35.0,17.378,0.8099,100776.96
0.8623,-0.1069,-0.0254,-22.256,40.915,6.098,0.8693,100777.42
0.8721,-0.103,-0.0337,-16.159,11.951,-4.756,0.8788,100776.27
0.7031,-0.0713,0.002,3.049,-1.646,-0.854,0.7067,100777.13
0.7007,-0.0176,0.0088,9.024,6.402,-0.61,0.701,100777.05
0.8525,-0.0474,-0.0869,3.659,11.829,-3.659,0.8583,100777.35
1.0063,-0.127,-0.2207,2.927,14.878,-12.561,1.0381,100777.46
1.1694,-0.1182,-0.2612,10.122,14.512,-30.976,1.2041,100777.41
1.248,-0.0332,-0.2568,11.707,-5.976,-41.89,1.2746,100777.5
1.2363,0.1016,-0.1484,18.171,-6.951,-25.793,1.2493,100778.8
1.2603,0.1309,-0.1655,21.159,-7.073,-7.073,1.2778,100779.03
1.3359,-0.0483,0.1812,28.598,7.805,6.098,1.349,100778.01
1.1729,-0.0366,0.3687,29.451,-24.695,2.256,1.23,100777.43
0.8721,0.1943,0.3462,27.195,-37.256,3.78,0.9582,100778.26
0.7129,0.3115,0.3701,13.354,6.89,13.415,0.8615,100779.02
0.7944,0.2827,0.0317,-7.744,49.817,11.22,0.8438,100779.82
0.9614,0.1089,-0.1665,-2.195,49.817,1.037,0.9818,100780.18
0.8105,0.0264,-0.0225,7.317,-12.683,-8.963,0.8113,100778.95
0.6553,0.0229,-0.0283,-1.524,-11.89,-3.354,0.6563,100778.9
0.7495,0.0557,-0.0493,5.427,12.805,10.61,0.7532,100779.12
0.9014,0.0742,-0.0708,3.476,10.305,13.841,0.9072,100779.02
1.0254,0.1333,-0.1631,-7.256,2.561,5.976,1.0468,100778.8
1.1245,0.1885,-0.1641,-7.195,0.305,-0.244,1.1519,100778.27
1.2563,0.1953,-0.125,-10.305,-11.524,-8.598,1.2776,100778.13
1.3145,0.1919,-0.2739,-22.683,-41.463,-23.11,1.3563,100777.27
1.3906,0.1035,-0.0679,-25.61,-41.402,-24.024,1.3961,100777.01
1.2554,0.0142,0.3838,-30.122,-33.659,-20.61,1.3128,100776.8
1.002,-0.084,0.2598,-15.122,-41.341,-15.488,1.0385,100776.28
0.7993,-0.1406,0.2368,12.622,-8.293,9.207,0.8454,100776.38
0.8115,-0.0732,0.1528,3.354,41.037,24.146,0.829,100776.21
0.9375,-0.0039,-0.0737,-19.695,54.878,16.829,0.9404,100776.95
0.897,-0.021,-0.0972,-18.415,-0.854,-5.0,0.9025,100776.27
0.6626,-0.0234,0.0107,-10.793,-25.732,-2.988,0.6631,100775.75
0.6255,0.0005,0.0303,-13.049,-2.317,6.22,0.6262,100775.62
0.856,-0.0107,-0.1348,-14.817,29.878,12.439,0.8666,100775.52
1.084,-0.0444,-0.2446,2.805,31.707,17.622,1.1121,100776.58
1.1338,-0.0244,-0.2305,8.415,10.732,4.817,1.1572,100776.39
1.1621,0.0049,-0.1328,-1.341,-24.207,-12.622,1.1697,100777.84
1.1729,0.0557,-0.1753,-2.622,-21.646,-0.366,1.1872,100778.06
1.2598,0.1694,-0.3062,22.195,11.341,9.146,1.3075,100777.97
1.2139,0.0264,-0.0254,31.28,1.341,1.829,1.2144,100778.41
1.1616,-0.1792,0.4067,12.195,-28.78,-16.22,1.2437,100778.39
0.9775,-0.0601,0.311,14.146,-35.671,-10.488,1.0276,100778.11
0.8379,0.1875,0.3799,28.354,12.5,14.817,0.9389,100778.75
0.832,0.2505,0.2153,12.927,51.585,23.171,0.8952,100778.01
1.0518,0.2065,-0.1875,-3.11,78.659,18.78,1.0881,100778.2
1.0137,0.0532,-0.1353,-1.951,27.012,2.5,1.024,100778.83
