ax,ay,az,gx,gy,gz,avm,pressure
1.2485,-0.0562,0.2979,41.646,5.976,11.402,1.2848,100573.78
1.0029,0.021,0.2954,49.085,31.28,27.439,1.0457,100573.91
0.8525,0.0039,0.3936,37.561,14.024,18.72,0.939,100573.02
0.6504,-0.0894,0.1812,23.78,-23.171,4.39,0.681,100573.31
0.5229,-0.1348,0.0723,28.537,-19.207,-3.171,0.5448,100572.69
0.687,-0.0879,0.0156,33.659,3.293,-10.732,0.6928,100573.71
0.939,-0.0376,0.1255,28.232,7.378,-12.988,0.9481,100573.6
1.0112,-0.0244,0.0244,-3.902,20.183,-5.915,1.0118,100573.52
1.1064,0.0371,-0.2104,-21.22,6.463,-12.012,1.1269,100573.38
1.1045,0.0146,-0.1104,-20.671,-27.866,-15.915,1.1101,100573.35
1.0596,-0.0303,-0.0161,-22.927,-27.5,-10.732,1.0601,100574.09
1.2544,-0.0176,0.0791,-27.195,-29.451,-11.707,1.257,100574.25
1.2583,-0.1201,0.3433,-36.341,-16.037,-12.012,1.3098,100574.49
1.3057,-0.1851,0.4878,-38.537,23.72,-18.232,1.406,100573.58
1.248,-0.1011,0.3398,-39.146,28.049,-27.378,1.2974,100573.29
0.9648,-0.0205,0.332,-42.988,24.268,-5.122,1.0206,100572.89
0.9399,-0.147,0.27,-56.22,7.012,-6.22,0.9889,100573.12
0.877,-0.1211,0.0898,-62.927,15.0,-15.793,0.8898,100572.81
0.792,0.0396,-0.0063,-61.585,7.561,-16.646,0.793,100573.3
0.7368,0.0806,-0.0952,-54.695,-10.549,-13.293,0.7473,100572.8
0.8657,-0.021,-0.1001,-49.634,33.78,-6.585,0.8717,100573.15
0.9116,-0.1055,-0.1094,-36.524,33.537,-10.0,0.9242,100573.42
1.1919,-0.1309,-0.0947,-18.598,13.415,-23.537,1.2028,100573.75
1.4961,-0.0435,-0.062,-19.695,7.561,-30.854,1.498,100574.23
0.8008,-0.0396,0.5996,-50.427,-7.256,-14.329,1.0012,100572.88
1.1401,0.1899,0.5166,-77.988,-10.549,-39.878,1.266,100572.8
1.1064,0.1431,0.2642,-107.805,-43.049,-45.854,1.1465,100572.52
0.8125,-0.0591,0.0371,-112.439,-12.5,-39.695,0.8155,100572.4
0.6831,-0.1079,0.1982,-95.549,-23.78,-60.915,0.7194,100572.7
0.561,0.0649,0.1523,-104.451,-73.963,-71.402,0.585,100572.59
0.48,0.0664,0.1753,-119.085,-53.232,-46.707,0.5153,100572.26
0.4717,0.1016,0.1851,-125.915,-11.098,-8.537,0.5168,100572.84
0.7583,0.2085,0.0273,-133.476,24.146,16.951,0.7869,100573.55
1.1436,0.1421,0.1333,-127.744,21.341,19.512,1.16,100573.46
1.3345,0.2788,0.1382,-111.463,-22.073,2.134,1.3703,100572.41
1.4136,0.2358,0.2817,-116.28,-33.598,-16.646,1.4605,100571.02
1.6216,-0.0215,0.8062,-105.976,-55.854,-8.598,1.811,100571.22
1.3184,-0.1865,0.7554,-118.354,1.159,15.183,1.5308,100571.85
0.9761,-0.2104,0.4883,-127.439,6.768,2.744,1.1115,100571.97
0.7642,-0.1841,0.1724,-115.671,-29.756,-0.488,0.8047,100572.44
0.644,-0.0459,0.1274,-102.927,7.073,-3.232,0.6581,100572.63
0.6958,0.0542,0.1816,-114.024,44.573,-18.537,0.7212,100572.28
0.8179,0.0127,0.1484,-133.171,25.793,-24.451,0.8313,100571.79
0.8813,-0.0283,0.1143,-114.695,9.939,-17.073,0.8892,100572.18
1.0083,-0.02,0.0938,-82.134,-1.463,-13.659,1.0128,100573.06
1.3408,0.0068,-0.0049,-58.354,2.988,-8.049,1.3408,100573.6
1.4243,-0.0547,0.0454,-43.171,12.195,-3.963,1.4261,100573.9
1.0234,-0.3145,0.7085,-33.72,-34.085,-17.5,1.2839,100574.28
0.9604,-0.1885,0.5747,-57.012,10.0,-24.329,1.135,100573.44
1.0698,-0.062,0.5703,-58.902,-26.159,-42.439,1.2139,100573.77
1.1182,0.064,0.4219,-74.512,-51.037,-71.829,1.1968,100574.31
0.979,0.0278,0.2979,-127.317,-5.671,-73.963,1.0237,100574.57
0.7529,-0.0371,0.105,-139.634,-18.293,-70.305,0.7611,100573.89
0.6255,-0.0903,0.2495,-82.195,-89.634,-62.744,0.6794,100574.62
0.2466,0.0854,0.4141,-60.976,-115.61,-38.841,0.4894,100574.67
0.3325,0.2559,0.0054,-93.902,-87.988,-5.671,0.4196,100574.48
0.916,0.2563,-0.2002,-102.5,-53.232,32.256,0.972,100574.04
1.4209,0.3027,-0.1963,-82.317,-34.329,40.061,1.466,100574.0
1.5317,0.0312,-0.2275,-79.268,0.854,35.183,1.5489,100574.69
1.5918,-0.042,0.0508,-65.671,22.317,12.5,1.5932,100574.2
1.4189,0.0161,0.4688,-76.707,12.195,2.378,1.4945,100574.48
1.0322,-0.2168,0.7061,-89.939,28.049,19.024,1.2693,100573.95
0.9722,-0.2603,0.4829,-55.61,-16.28,39.207,1.1163,100574.02
0.8638,-0.1411,0.1924,-30.976,-21.037,26.768,0.8961,100573.34
0.7397,-0.0664,0.1997,-53.537,-11.341,-6.707,0.7691,100573.78
0.7466,-0.0112,0.1035,-90.793,-2.927,-19.878,0.7538,100573.99
0.8179,0.0303,-0.1372,-68.659,-9.024,-17.256,0.8299,100573.16
0.8579,-0.0181,0.0742,-38.537,17.317,-10.122,0.8613,100572.51
0.8169,-0.0522,0.1982,-31.829,32.683,-3.659,0.8422,100572.52
0.8647,-0.0312,-0.0151,-12.927,6.951,12.012,0.8654,100572.89
1.1108,-0.0723,0.0889,12.805,-15.305,12.134,1.1167,100572.65
1.4346,-0.0728,0.1079,30.976,-11.463,4.329,1.4405,100572.23
1.4985,-0.0244,0.1768,30.183,13.72,6.829,1.5091,100572.8
1.4307,-0.1611,0.5225,15.671,51.159,18.049,1.5316,100572.84
0.8618,-0.2368,0.5347,21.402,32.866,21.951,1.0415,100572.98
0.6553,0.0688,0.2549,34.634,-18.659,-1.402,0.7065,100573.09
0.6064,0.0762,0.2417,18.78,-5.793,-10.915,0.6573,100573.59
0.8286,0.0786,0.1816,11.159,23.72,-19.817,0.8519,100573.91
0.708,0.0332,0.1929,-7.134,18.171,-43.171,0.7346,100573.81
0.5586,0.062,0.0518,-26.768,-36.341,-50.305,0.5644,100573.84
0.7651,0.0947,0.0083,-36.28,-42.256,-39.939,0.771,100574.13
0.8149,0.1362,0.1494,-18.415,-0.305,-12.317,0.8397,100573.96
1.0112,0.2617,0.064,-1.585,2.561,18.049,1.0465,100574.45
1.3643,0.1904,0.0552,-0.671,-37.927,30.671,1.3786,100575.16
1.584,0.1748,-0.0571,-17.683,-23.049,7.256,1.5946,100576.18
1.5532,0.1685,0.1182,-25.488,-14.817,-27.134,1.5668,100575.95
1.3486,-0.1021,0.6025,-36.707,-6.646,-15.0,1.4806,100575.88
1.0991,-0.2256,0.5708,-55.061,15.183,7.988,1.2589,100575.56
0.8281,-0.2432,0.313,-38.659,-13.902,14.146,0.9181,100575.32
0.6353,-0.1802,0.2188,-19.695,-36.585,11.829,0.6956,100575.01
0.5342,-0.019,0.2251,-17.5,3.171,3.598,0.58,100575.54
0.5923,0.126,0.0781,-28.171,30.976,-0.549,0.6106,100575.53
0.7461,0.0933,-0.0947,-33.232,14.085,4.817,0.7578,100575.8
0.8145,0.0337,-0.0322,-6.402,7.622,9.268,0.8158,100575.77
0.9629,0.0269,0.0073,14.39,23.171,7.805,0.9633,100576.01
1.0889,0.0156,0.002,24.817,12.317,9.39,1.089,100575.45
1.3442,0.0464,0.0444,33.415,-22.622,4.39,1.3458,100575.52
1.4741,0.0654,-0.1333,34.756,-4.451,-2.256,1.4816,100575.59
1.5054,0.0337,0.3389,50.244,-2.927,-5.61,1.5434,100575.04
1.2773,0.0122,0.8564,68.049,-0.122,-0.366,1.5379,100574.64
1.0845,0.168,0.5977,61.707,-27.134,-2.805,1.2496,100574.3
0.8857,0.2749,0.2886,50.244,-47.378,-14.268,0.9713,100574.21
0.6245,0.1182,0.1724,40.061,-10.61,-4.817,0.6585,100574.98
0.6084,-0.0098,0.1504,41.585,53.11,8.171,0.6268,100574.95
0.6777,-0.0151,0.0249,24.024,64.695,-10.061,0.6784,100575.07
0.6567,0.0112,0.0454,2.317,-15.732,-29.024,0.6584,100574.8
0.6299,0.063,0.0518,-16.829,-30.122,-25.183,0.6351,100574.82
0.7603,0.127,0.0039,-20.305,6.707,-8.11,0.7708,100575.21
1.1362,0.2759,0.0376,-8.354,-11.463,10.122,1.1698,100574.91
1.4053,0.2739,-0.1309,-22.439,-19.878,18.841,1.4377,100574.91
1.5791,0.2041,-0.1313,-35.366,13.232,5.732,1.5976,100575.65
1.626,0.2046,0.3247,-12.012,-39.573,-4.451,1.6707,100575.82
1.2383,-0.0391,0.6172,-18.232,-29.512,12.927,1.3841,100575.73
0.9263,-0.1729,0.4326,-30.183,19.939,31.768,1.0368,100574.8
0.8208,-0.187,0.2456,-10.183,-25.122,38.78,0.8769,100574.95
0.6108,-0.1187,0.3208,11.28,-43.537,31.646,0.7001,100574.48
0.6201,0.0259,0.2002,0.305,20.854,8.171,0.6521,100574.99
0.644,0.0659,0.0078,-39.634,79.451,-5.549,0.6475,100574.99
0.7515,0.0518,-0.0469,-43.354,66.585,-4.451,0.7547,100575.02
0.8589,0.0098,-0.0342,-17.073,54.939,5.671,0.8596,100575.77
0.9507,-0.0908,-0.0366,6.037,43.171,15.61,0.9557,100575.71
1.0845,-0.0908,0.0879,27.378,12.317,6.28,1.0918,100576.28
1.4336,0.0283,0.0493,33.841,-6.89,-6.707,1.4347,100576.84
1.5747,0.063,0.0493,32.561,3.72,-1.707,1.5767,100576.62
1.4585,-0.1123,0.3271,35.122,-16.89,-3.78,1.4989,100576.34
1.1699,-0.0713,0.8433,61.22,-31.829,-8.049,1.4439,100576.02
0.8423,0.022,0.6201,27.805,2.622,-12.073,1.0462,100575.79
0.8257,0.1406,0.4673,2.378,6.585,-24.146,0.9591,100575.36
0.8418,0.1191,0.3271,8.293,-9.817,-29.207,0.911,100575.77
0.7983,0.0664,0.1421,12.988,14.939,-20.244,0.8136,100575.6
0.7568,0.0254,0.1079,5.732,34.756,-19.268,0.7649,100575.2
0.6279,0.021,0.0605,-5.793,-33.293,-39.573,0.6312,100575.66
0.623,0.0645,0.0708,-21.89,-42.256,-45.244,0.6304,100576.02
0.7061,0.147,0.0801,-27.134,-16.098,-24.512,0.7256,100575.05
0.8857,0.2451,-0.0347,-13.232,-13.232,7.622,0.9197,100574.79
1.1543,0.2192,-0.0083,-5.061,-24.939,40.061,1.175,100575.23
1.4028,0.168,-0.0996,-10.0,-38.354,36.037,1.4164,100575.68
1.5195,0.2261,0.0562,-7.744,-30.366,7.012,1.5373,100575.4
1.6172,0.1274,0.6084,-14.085,-31.585,0.549,1.7325,100574.58
1.1396,-0.0859,0.7065,-34.512,48.78,4.817,1.3436,100574.98
0.8633,-0.165,0.2822,-46.037,40.244,14.329,0.9231,100574.64
0.856,-0.1108,0.1299,-12.866,-43.78,16.402,0.8728,100574.63
0.666,-0.0518,0.3047,-3.841,-11.402,5.976,0.7342,100574.85
0.6465,-0.0825,0.1719,-49.207,80.61,-2.561,0.674,100574.91
0.7393,-0.0566,0.0107,-54.573,70.854,-11.585,0.7415,100574.98
0.7344,0.0059,0.0029,-34.512,23.476,-12.622,0.7344,100574.27
0.8638,-0.0205,-0.0112,-21.402,10.61,-5.61,0.8641,100574.59
0.9507,-0.0913,0.1299,-7.805,9.573,-4.695,0.9638,100574.34
1.1226,-0.0176,0.1099,3.293,-20.854,-3.78,1.1281,100575.62
1.4478,0.1309,-0.1196,17.134,-25.976,3.659,1.4586,100575.38
1.5479,0.0015,0.1904,18.902,-14.756,6.951,1.5595,100575.77
1.3848,-0.1357,0.709,27.378,-25.0,-2.683,1.5616,100574.36
0.9194,-0.1084,0.8296,9.512,-8.293,-17.683,1.2431,100573.91
0.9644,0.0757,0.5557,-17.439,-17.317,-36.768,1.1156,100574.55
0.9863,0.127,0.3232,-32.744,-31.098,-57.561,1.0457,100574.42
0.8984,0.0176,0.2666,-38.354,-29.329,-51.707,0.9373,100574.23
0.7617,0.0205,0.0508,-44.695,-6.524,-31.951,0.7637,100573.95
0.5513,0.0029,0.1274,-59.207,-6.463,-31.22,0.5658,100573.25
0.5684,0.0303,0.0884,-65.732,-38.78,-32.805,0.576,100572.86
0.5854,0.0767,0.061,-77.195,-13.049,-22.805,0.5936,100572.92
0.7876,0.1509,0.0508,-86.463,12.988,-8.537,0.8035,100573.22
0.9966,0.3027,0.0889,-67.744,4.817,9.512,1.0453,100574.06
1.1978,0.3574,0.0742,-56.89,-13.841,9.329,1.2521,100574.69
1.2964,0.3125,0.0024,-66.098,-6.585,0.61,1.3335,100575.26
1.2812,0.1406,0.2129,-49.512,-28.659,-9.695,1.3064,100574.21
1.2847,0.0068,0.6001,-16.89,-64.451,0.183,1.4179,100573.79
1.1982,-0.2393,0.7715,-53.841,40.549,20.976,1.4451,100573.11
1.147,-0.3662,0.6826,-65.244,58.963,18.293,1.3841,100573.23
0.9468,-0.2734,0.2041,-48.72,-31.951,14.085,1.0064,100575.03
0.7305,-0.1191,0.1235,-49.878,7.5,12.256,0.7504,100574.66
0.791,0.0464,0.043,-64.451,72.134,8.232,0.7935,100574.62
0.7603,0.0156,0.1807,-82.5,46.524,-5.305,0.7816,100574.96
0.7524,0.0,0.0928,-75.427,-6.89,-16.341,0.7581,100575.95
0.7886,-0.0903,0.0649,-69.268,-28.11,-22.012,0.7964,100576.7
0.9106,-0.2178,0.0767,-67.439,-6.89,-30.732,0.9395,100576.16
1.2896,-0.1318,-0.0498,-38.963,0.488,-37.134,1.2972,100575.87
1.5205,0.0356,0.1191,-32.195,-2.256,-33.049,1.5256,100575.66
1.5068,-0.1768,0.4473,-69.329,-17.317,-34.268,1.5817,100575.27
1.2266,-0.2412,0.6768,-67.988,-32.195,-44.451,1.4215,100576.07
0.8389,-0.0557,0.7192,-66.646,-1.89,-49.39,1.1064,100574.95
0.8696,0.104,0.5986,-74.878,-49.512,-53.293,1.0609,100574.5
0.9888,0.1323,0.5786,-104.146,-52.5,-82.134,1.1532,100574.65
0.9595,0.0967,0.4292,-141.098,-39.146,-103.171,1.0555,100574.27
0.8418,0.0737,0.1919,-180.122,-78.232,-106.585,0.8665,100573.98
0.6406,0.0537,0.0566,-186.646,-78.537,-94.512,0.6454,100574.25
0.5703,0.0342,0.1572,-162.378,-36.646,-73.963,0.5926,100575.2
0.6221,0.1504,0.1509,-142.5,-47.378,-52.439,0.6575,100574.16
0.6719,0.2593,0.0654,-120.976,-21.463,-17.134,0.7231,100574.74
0.8433,0.2607,0.0552,-93.78,-23.537,10.488,0.8844,100574.97
1.0171,0.208,0.1265,-88.415,-44.329,18.78,1.0458,100575.59
1.2163,0.2251,0.0396,-102.195,-13.415,14.146,1.2376,100575.19
1.4224,0.1567,0.4946,-97.012,-35.305,-6.524,1.514,100574.78
1.5615,0.1855,0.9038,-86.341,-73.537,7.073,1.8137,100574.94
1.2837,-0.0132,0.8633,-100.61,-5.061,35.427,1.547,100575.41
1.021,-0.2227,0.5269,-91.707,-38.293,44.268,1.1703,100575.53
0.8271,-0.1387,0.1768,-62.683,-64.756,33.659,0.8571,100576.09
0.6724,0.0146,0.127,-52.5,14.207,16.585,0.6844,100576.65
0.6865,0.1006,0.1128,-74.024,81.037,8.476,0.703,100577.09
0.6831,0.041,0.147,-92.134,54.512,2.5,0.6999,100576.66
0.709,0.0156,0.0942,-85.549,41.89,10.183,0.7154,100576.59
0.7944,-0.0195,0.0977,-67.5,50.915,23.354,0.8007,100577.16
0.8726,-0.0454,0.2002,-40.671,19.634,16.463,0.8964,100576.36
1.27,0.0332,-0.0864,-13.537,-25.976,-11.463,1.2734,100576.0
1.6377,-0.0601,0.3198,28.476,-55.976,-7.073,1.6697,100575.89
1.6494,-0.0942,0.4868,23.72,-26.768,6.098,1.7223,100574.92
1.3022,-0.335,0.7646,-10.488,26.646,16.707,1.5468,100575.19
1.042,-0.3604,0.7456,-42.866,-37.805,-24.817,1.331,100575.77
0.9741,-0.0771,0.2456,-33.659,-76.22,-45.366,1.0076,100575.35
0.8032,-0.0234,0.332,-24.573,0.305,-46.829,0.8695,100575.92
0.7656,0.0103,0.3755,-20.854,28.171,-44.329,0.8528,100575.97
0.7544,0.0981,0.1792,-37.012,-21.585,-39.573,0.7816,100576.49
0.6289,0.0234,0.0532,-77.378,-55.915,-52.195,0.6316,100576.88
0.4409,-0.022,0.0425,-96.524,-60.793,-60.061,0.4435,100576.97
0.5796,0.0996,0.1792,-51.89,-33.293,-40.183,0.6148,100576.52
0.9004,0.3618,-0.0342,-41.159,-42.561,-33.598,0.971,100576.2
1.2192,0.3623,-0.1841,-50.732,-55.61,-18.78,1.2852,100576.54
1.1948,0.2251,-0.0957,-24.329,-42.317,18.232,1.2196,100576.21
1.2256,0.0483,0.0303,-22.378,-33.659,26.707,1.2269,100576.45
1.4434,0.0571,0.3047,-12.5,-32.073,27.683,1.4763,100576.14
1.2925,0.0708,0.5396,-16.22,-12.134,44.756,1.4024,100575.77
0.9829,-0.064,0.625,-43.72,32.439,55.976,1.1665,100576.36
0.8125,-0.0728,0.3262,-42.195,81.585,42.256,0.8785,100576.84
0.7959,0.0498,0.2217,-58.902,103.415,2.439,0.8277,100576.55
0.8687,0.1445,-0.127,-64.329,81.098,-13.354,0.8897,100576.07
0.7793,0.0879,-0.1104,-25.183,40.854,18.11,0.792,100576.08
0.7461,-0.0391,0.1372,17.012,10.061,25.61,0.7596,100576.31
0.7256,-0.1797,0.1938,47.134,1.159,11.585,0.7722,100575.76
1.124,-0.0928,0.1401,62.866,-14.39,-1.89,1.1365,100575.84
1.563,-0.0947,0.2046,57.317,2.256,-0.671,1.5792,100576.98
1.5137,-0.0713,0.3809,57.927,-4.817,6.037,1.5625,100576.63
1.3359,-0.0464,0.5234,44.085,-65.549,-6.098,1.4356,100576.73
0.979,0.0034,0.8179,37.744,-55.854,-10.976,1.2757,100576.07
0.8882,0.1045,0.645,31.098,-5.915,0.793,1.1027,100576.2
0.9009,0.2422,0.5562,32.927,-14.756,-9.756,1.0861,100576.41
0.6309,0.1406,0.3516,18.232,-15.732,-12.805,0.7358,100576.83
0.5112,-0.041,0.3115,25.305,20.549,-4.756,0.6001,100577.77
0.6001,-0.0132,0.1475,38.598,35.244,-12.561,0.6181,100576.75
0.644,0.0103,0.0835,20.732,25.732,-28.72,0.6495,100576.23
0.6831,0.0649,0.165,-0.183,1.707,-24.695,0.7058,100576.11
0.8506,0.1694,0.0459,-11.037,23.476,0.61,0.8685,100576.48
1.2764,0.3623,-0.0498,2.561,-25.244,16.768,1.3277,100576.13
1.3921,0.3501,0.1206,-2.866,-85.854,37.622,1.4405,100576.38
1.3145,0.0835,0.0635,-33.293,-25.549,42.744,1.3186,100576.41
1.6284,-0.0615,0.3218,-6.463,-19.573,0.183,1.661,100576.32
1.228,0.04,0.4932,24.878,-34.451,-9.268,1.324,100575.53
1.0259,-0.0312,0.5449,-30.061,47.195,8.415,1.162,100575.31
0.8706,-0.1958,0.3701,-38.598,29.695,13.232,0.9661,100574.4
0.667,-0.0229,0.2759,14.817,4.634,10.244,0.7222,100573.98
0.6514,0.0889,0.3232,-4.268,4.268,-4.268,0.7326,100574.14
0.5869,0.0508,0.1807,-44.024,10.244,-3.11,0.6162,100574.88
0.6772,-0.0176,0.1084,-47.805,26.341,2.012,0.6861,100575.06
0.7471,-0.063,-0.0347,-31.707,19.146,-3.902,0.7505,100574.84
0.8862,-0.0557,-0.1445,-2.866,13.537,-4.695,0.8997,100575.41
1.2646,0.0283,0.1958,27.256,-20.244,4.207,1.28,100575.19
1.3477,0.147,0.1001,33.171,-23.11,15.427,1.3593,100575.42
1.6831,0.0,0.0317,32.378,-7.622,17.805,1.6834,100575.36
1.6108,-0.1235,0.7739,65.305,-17.988,11.159,1.7914,100574.93
1.0454,0.0562,0.9189,89.512,-22.988,17.317,1.393,100574.95
0.9521,0.1924,0.7178,64.512,-22.5,18.171,1.2078,100575.14
0.8853,0.2378,0.3486,35.366,-32.073,-0.793,0.9807,100575.12
0.5312,-0.0054,0.1846,24.512,-7.317,8.11,0.5624,100574.79
0.501,-0.1006,0.165,50.061,18.293,5.793,0.537,100575.02
0.6133,-0.062,-0.1206,35.305,-0.671,-25.793,0.6281,100574.28
0.3877,-0.0845,-0.0439,13.659,-41.646,-43.11,0.3992,100574.88
0.3442,-0.0513,0.0103,3.171,10.854,-26.646,0.3482,100574.82
0.9292,0.1914,0.0254,5.732,-1.524,-23.415,0.949,100575.4
1.6045,0.2949,0.0381,-52.012,-49.207,-6.646,1.6318,100575.21
1.6724,0.0879,-0.0054,-63.598,20.61,18.415,1.6747,100575.32
1.8877,0.0591,0.2129,-5.976,-39.817,-25.488,1.9006,100574.91
1.415,0.1445,0.3403,16.159,-76.037,-16.159,1.4625,100575.07
1.0552,-0.022,0.7407,-39.756,46.22,17.378,1.2894,100574.83
1.0098,-0.1895,0.2759,-80.671,29.146,18.049,1.0638,100575.38
0.7993,-0.1357,0.0522,-41.707,-28.11,12.073,0.8124,100575.29
0.5239,-0.0391,0.2124,-31.646,-36.768,-9.817,0.5667,100575.01
0.4624,0.0625,0.1025,-62.195,-3.171,-17.073,0.4777,100575.52
0.541,0.0664,-0.1172,-71.829,28.171,-11.646,0.5575,100575.3
0.5264,0.0508,-0.0913,-46.28,26.463,-8.354,0.5366,100575.12
0.6987,0.1016,-0.0898,-23.659,1.768,-3.537,0.7118,100575.35
1.2388,0.104,-0.0781,5.793,-1.098,26.646,1.2456,100576.37
1.5039,0.2021,-0.0581,33.354,40.183,34.512,1.5185,100576.63
1.7368,0.0527,0.0386,29.329,77.378,17.866,1.738,100576.73
1.584,-0.0454,0.5996,62.317,-4.268,3.171,1.6943,100576.21
1.1914,-0.0303,0.8071,63.78,-31.646,8.537,1.4394,100574.83
0.8394,-0.0498,0.6313,49.695,57.805,25.976,1.0515,100574.79
0.9751,0.1641,0.3691,40.671,32.744,-12.134,1.0555,100574.91
0.8052,0.1841,0.3784,48.232,-2.866,-40.488,0.9085,100574.74
0.5234,-0.0376,0.4341,20.0,14.817,-41.646,0.681,100573.99
0.4771,-0.0649,0.1367,-13.11,6.646,-52.622,0.5005,100573.18
0.4658,-0.1519,-0.0884,-35.427,-49.634,-54.146,0.4979,100573.94
0.5054,-0.208,0.0615,-45.915,2.683,-13.902,0.55,100574.12
0.7754,0.0796,0.2363,-37.134,36.037,16.28,0.8145,100574.77
1.2676,0.2363,0.1646,-59.39,7.012,5.671,1.2999,100574.99
1.4326,0.0581,0.1665,-80.549,-10.732,2.744,1.4434,100574.78
1.5312,-0.062,0.7485,-31.037,-35.305,-6.341,1.7055,100574.15
1.459,-0.1167,0.9771,-25.183,-7.744,-9.451,1.7598,100573.93
1.2637,-0.2769,0.9419,-89.451,33.171,-4.329,1.6002,100574.6
1.0464,-0.3623,0.4937,-137.439,-32.073,10.0,1.2124,100574.27
0.7261,-0.3008,0.2168,-128.72,-61.341,-12.378,0.8153,100574.88
0.5815,0.001,0.0908,-92.683,22.195,-17.561,0.5886,100574.95
0.6064,0.1318,0.0825,-90.061,104.268,17.256,0.6261,100575.27
0.5225,0.0337,0.0942,-101.89,62.134,10.793,0.532,100574.16
0.6494,0.0151,0.1021,-77.988,5.488,-13.598,0.6576,100574.94
0.9287,-0.063,0.0874,-61.402,26.951,-17.439,0.9349,100574.8
1.2183,-0.1758,0.1934,-42.073,29.634,-21.89,1.246,100575.5
1.4214,-0.1553,0.1338,-12.683,-26.707,-29.146,1.4361,100575.71
1.5161,-0.1982,0.4146,-23.232,-11.829,-40.488,1.5842,100575.58
1.3994,-0.4243,0.7915,-51.098,-6.524,-54.024,1.6628,100575.88
0.8872,-0.3047,0.7725,-59.085,-42.683,-74.024,1.2152,100574.66
0.853,-0.0884,0.7061,-47.012,-89.146,-58.049,1.1108,100574.36
1.02,0.041,0.7441,-66.463,-73.11,-63.659,1.2633,100574.72
0.9536,0.0771,0.5469,-115.793,-55.244,-79.634,1.102,100575.63
0.7583,-0.0029,0.3555,-152.927,-57.744,-79.573,0.8375,100574.59
0.5439,-0.0073,0.1543,-170.915,-46.89,-76.159,0.5655,100575.03
0.4282,-0.0693,0.0234,-167.134,-28.476,-73.049,0.4344,100575.38
0.6021,-0.0576,0.1675,-165.793,-24.268,-68.049,0.6276,100575.13
0.7505,0.0986,0.2051,-182.744,-10.0,-48.293,0.7842,100575.56
0.853,0.207,0.1118,-180.305,2.988,-27.683,0.8849,100575.27
1.0864,0.2275,0.168,-161.829,-8.598,-17.866,1.1226,100575.52
1.2051,0.2246,0.3071,-167.378,-12.256,-11.159,1.2637,100575.86
1.1455,0.0879,0.4951,-166.646,-9.451,-13.171,1.251,100575.6
1.2173,-0.1001,0.7285,-149.878,-25.0,-15.793,1.4222,100575.91
1.2422,-0.1592,0.6357,-123.293,-24.024,1.159,1.4045,100575.66
1.1885,-0.1626,0.3677,-108.171,-5.0,18.841,1.2546,100574.98
0.9424,-0.208,0.4175,-108.72,-5.976,12.805,1.0515,100574.96
0.7778,-0.2271,0.4048,-105.488,-9.024,2.134,0.9058,100574.24
0.728,-0.1104,0.1665,-87.561,21.707,-0.915,0.7549,100574.3
0.7534,0.0381,0.0776,-63.78,14.024,-14.024,0.7584,100574.85
0.8989,0.0708,0.1338,-42.927,-39.39,-20.732,0.9116,100574.98
0.9097,0.0435,0.165,-38.537,-27.195,-14.329,0.9255,100575.23
0.96,0.0576,0.1177,-30.427,-10.671,-17.378,0.9689,100575.9
1.2144,0.0537,0.0591,-14.146,-13.598,-26.585,1.217,100576.27
1.2407,-0.0303,-0.0161,2.927,0.488,-32.317,1.2412,100576.2
1.4829,-0.0947,0.0605,46.768,-4.146,-30.915,1.4872,100576.63
1.5142,-0.0874,0.3809,81.341,17.866,9.329,1.5638,100577.32
1.1582,-0.1943,0.6226,33.232,90.732,30.854,1.3292,100576.38
0.8574,-0.1636,0.5435,-9.146,59.39,-6.341,1.0282,100576.42
0.7007,-0.0337,0.5586,-27.988,8.78,-39.695,0.8967,100575.6
0.8301,0.0542,0.5049,-49.695,0.793,-53.049,0.9731,100576.6
0.7998,0.0488,0.3101,-87.073,24.878,-54.39,0.8592,100576.73
0.6089,-0.0171,0.2676,-103.659,19.207,-64.756,0.6653,100576.66
0.4497,0.0415,0.1699,-81.463,10.732,-71.037,0.4825,100576.64
0.4272,0.0708,0.2212,-59.512,7.927,-54.817,0.4863,100576.25
0.5381,0.1431,0.2612,-47.256,-1.159,-32.622,0.615,100576.2
0.8101,0.3135,0.2979,-22.5,-16.89,-21.89,0.9182,100576.02
1.1504,0.48,0.293,-14.573,-15.61,21.159,1.2805,100575.53
1.7891,0.4243,0.2632,-39.939,-10.854,21.646,1.8574,100575.52
1.6572,0.1533,0.5996,-31.768,-33.659,-25.061,1.769,100576.5
1.417,0.1714,0.7041,-18.537,-92.683,-47.622,1.5915,100576.12
0.9736,-0.1592,1.1655,-39.329,20.915,18.049,1.527,100574.97
0.8564,-0.3213,0.8022,-25.488,7.988,60.732,1.2167,100574.98
0.7944,-0.1777,0.5415,16.89,-57.744,57.134,0.9777,100575.96
0.6172,-0.0381,0.4414,9.207,-54.146,35.915,0.7597,100576.05
0.4736,0.0142,0.1528,-29.512,-1.159,8.78,0.4979,100576.38
0.4912,0.0391,-0.0332,-48.902,36.707,-6.768,0.4939,100576.64
0.459,-0.0249,0.0347,-43.72,29.268,-7.012,0.461,100576.61
0.7197,-0.1377,0.0986,-23.598,12.866,7.195,0.7394,100576.33
1.1216,-0.1406,0.0171,30.061,-7.622,21.585,1.1305,100576.1
1.3022,-0.0273,0.3218,50.61,6.037,11.463,1.3417,100576.15
1.3745,0.0327,0.5464,19.329,-6.646,3.72,1.4795,100576.58
1.5439,-0.0137,0.2627,-7.195,-51.402,-7.317,1.5662,100576.89
1.499,-0.1382,0.7456,24.817,-41.463,-15.854,1.6799,100576.54
1.0781,-0.1279,0.9233,44.817,5.305,4.024,1.4252,100576.63
0.8179,-0.0298,0.707,21.159,20.732,10.427,1.0815,100575.73
0.8135,0.0562,0.6284,3.72,2.561,-23.232,1.0295,100575.41
0.6768,0.0186,0.4497,-14.756,36.951,-31.28,0.8128,100575.44
0.5762,0.0488,0.2808,4.634,44.756,-15.183,0.6428,100575.58
0.5176,0.1035,0.0122,12.988,-6.524,-10.854,0.528,100575.54
0.3057,-0.0454,0.0898,-2.561,-24.573,-7.012,0.3218,100575.66
0.4648,0.0439,0.0845,-10.854,2.683,-14.573,0.4745,100575.84
0.707,0.2778,0.1865,-15.549,4.695,-23.049,0.7822,100574.63
1.5664,0.2217,0.187,-46.098,-22.866,-10.061,1.593,100574.92
1.8853,0.1768,0.1094,-19.817,-28.354,-6.951,1.8967,100576.16
1.6436,0.1968,0.6631,15.915,-65.549,-10.183,1.7832,100575.6
1.1733,-0.001,1.0161,1.585,-50.732,5.854,1.5522,100576.05
0.9595,-0.0527,0.8369,-30.061,46.28,32.073,1.2743,100576.01
0.7954,-0.1162,0.4204,-17.866,2.256,41.098,0.9072,100576.12
0.4756,-0.1069,0.2803,9.573,-50.0,30.061,0.5623,100575.8
0.3501,-0.0889,0.1274,-3.11,18.171,25.549,0.383,100575.6
0.6113,-0.0469,0.1069,-30.732,74.268,4.451,0.6224,100575.91
0.6348,-0.0205,0.0728,-34.024,42.683,-8.354,0.6393,100576.14
0.6216,-0.0771,0.1118,-18.232,35.671,6.524,0.6363,100575.22
0.9536,-0.1284,0.1528,2.134,35.0,13.841,0.9743,100575.16
1.1621,-0.126,0.3481,22.744,0.61,5.671,1.2197,100575.49
1.605,0.1069,0.1626,37.988,-28.415,0.732,1.6167,100576.32
1.6831,0.1733,0.4194,39.695,-28.78,5.671,1.7432,100576.71
1.3408,-0.2339,0.9932,25.061,-42.439,-4.146,1.6849,100576.51
0.9502,-0.2554,0.8135,43.171,1.951,9.268,1.2766,100575.62
0.9517,0.1631,0.6885,53.293,1.768,15.732,1.1859,100576.21
1.0254,0.2983,0.5352,41.463,-46.463,-0.732,1.1945,100576.29
0.7437,0.0615,0.3428,10.732,17.256,-2.683,0.8212,100575.98
0.5449,-0.043,0.0459,-4.573,25.854,-20.732,0.5485,100575.49
0.3154,-0.0962,0.0991,5.122,-7.134,-33.049,0.3443,100575.24
0.2617,-0.0381,0.1665,5.854,-28.476,-34.817,0.3125,100575.45
0.5034,0.105,0.0444,-8.11,-26.159,-18.049,0.5162,100575.59
0.9819,0.2432,0.1523,-27.317,-34.268,3.841,1.023,100575.19
1.5034,0.2373,0.1182,-42.805,-35.122,2.5,1.5266,100575.48
1.498,0.1094,0.0747,-52.439,14.817,8.11,1.5039,100575.62
1.4043,0.1245,0.3164,-14.085,4.756,11.646,1.4449,100575.7
1.6875,0.1699,0.6509,21.22,-36.829,3.659,1.8166,100575.75
1.0435,-0.1963,0.8208,-19.268,40.305,14.207,1.342,100575.94
0.894,-0.3091,0.6304,-32.256,29.39,20.122,1.1368,100575.47
1.0239,-0.2891,0.2925,-16.159,-62.439,12.012,1.1034,100576.23
0.6357,-0.1528,0.311,-1.341,-51.585,2.927,0.7241,100575.19
0.4307,-0.0977,0.2349,-43.293,11.585,-4.085,0.5002,100574.89
0.3955,-0.1084,0.0171,-53.72,15.793,-18.841,0.4104,100574.95
0.5195,-0.0288,0.2241,-28.598,4.512,-24.695,0.5665,100575.48
0.7183,0.1021,0.0825,-40.366,49.085,-6.646,0.7302,100575.63
1.0161,0.0552,-0.1187,-38.963,79.39,-2.073,1.0245,100575.62
1.2124,0.0898,0.0459,14.817,-7.866,-17.317,1.2166,100575.22
1.6733,0.1963,0.1348,40.122,-54.451,-14.146,1.6902,100575.77
1.6523,0.0513,0.4155,38.841,-18.598,9.451,1.7046,100574.76
1.4355,-0.083,0.8647,48.476,-20.671,2.927,1.6779,100574.34
1.0586,-0.0337,0.854,68.11,-25.488,10.61,1.3605,100574.91
0.9902,0.1514,0.4873,58.902,-61.22,3.841,1.114,100574.84
0.8213,0.0693,0.2515,14.024,-53.598,-10.793,0.8617,100575.04
0.6011,-0.1025,0.0171,3.354,4.695,0.61,0.61,100574.8
0.5288,-0.0977,-0.0835,46.098,35.732,10.61,0.5442,100575.93
0.5371,-0.0254,0.1255,56.341,0.61,-9.939,0.5522,100575.69
0.5811,0.0327,0.1226,13.598,-24.024,-32.439,0.5947,100575.89
1.2002,0.1987,-0.0449,-21.829,-27.622,19.512,1.2174,100576.58
1.5078,0.0078,-0.0864,-49.634,10.549,12.805,1.5103,100577.45
1.6152,-0.0391,0.1304,-39.085,-6.463,-7.134,1.621,100577.1
1.3633,-0.0542,0.2056,-20.183,-49.39,-3.598,1.3798,100577.09
1.1274,-0.2749,0.7925,-21.768,-11.098,21.585,1.4052,100576.95
0.9902,-0.228,0.5547,-66.159,42.866,27.927,1.1577,100576.12
0.9126,-0.1821,0.1519,-67.317,3.659,17.561,0.9429,100575.74
0.771,-0.1235,0.3496,-52.744,-23.659,-9.695,0.8555,100576.09
0.7217,-0.0342,0.3721,-67.744,38.963,-27.866,0.8127,100576.43
0.7651,0.0034,0.1714,-91.22,79.39,-35.793,0.7841,100576.59
0.8037,-0.0225,0.0083,-89.695,54.207,-36.037,0.8041,100575.85
0.7935,0.0112,-0.0488,-57.805,32.256,-30.793,0.795,100575.52
0.8862,-0.001,-0.0679,-17.683,6.585,-23.598,0.8888,100577.0
0.9482,-0.0415,0.1152,2.988,-10.61,-18.293,0.9561,100576.64
1.3125,0.0981,0.043,12.744,-24.146,-12.988,1.3169,100577.11
1.6196,0.0708,0.1074,2.683,-11.829,3.354,1.6247,100576.37
1.4463,-0.3237,0.6895,-16.524,-25.061,2.134,1.6346,100576.3
0.9912,-0.2158,0.8691,-20.366,-45.305,-20.305,1.3358,100575.77
0.957,-0.0054,0.6353,-38.841,-4.634,-39.024,1.1487,100575.34
1.1421,0.1655,0.582,-64.512,0.854,-65.549,1.2925,100575.4
0.9507,0.0972,0.4229,-91.463,-20.915,-67.561,1.045,100575.23
0.6724,0.0303,0.1763,-90.976,-4.695,-47.988,0.6957,100575.84
0.5776,0.0659,0.1626,-99.573,7.439,-53.354,0.6037,100576.02
0.6226,0.0801,0.1382,-86.768,-22.5,-39.329,0.6427,100575.98
0.6714,0.2036,0.1426,-76.829,-16.524,-24.634,0.7159,100576.27
0.748,0.2363,0.1133,-85.854,-43.659,-4.756,0.7926,100575.5
0.918,0.1064,0.0586,-88.354,-52.622,6.463,0.926,100575.31
1.2231,0.085,-0.0562,-74.939,-28.841,-1.402,1.2274,100575.65
1.3784,0.0625,0.2939,-62.5,-36.341,-21.037,1.4108,100575.15
1.3726,0.0781,0.751,-67.195,-42.561,-20.854,1.5665,100575.15
1.252,-0.001,0.8076,-98.78,-5.427,9.024,1.4898,100575.18
1.2417,-0.2637,0.7349,-124.146,5.671,16.951,1.4668,100575.64
1.2109,-0.3491,0.4624,-110.366,-32.683,17.195,1.3424,100574.77
0.938,-0.1528,0.1621,-95.305,-1.402,18.476,0.9641,100574.86
0.7246,0.0273,0.1875,-100.0,36.22,11.341,0.749,100574.55
0.6826,0.0806,0.2461,-124.817,19.39,-8.841,0.7301,100574.7
0.6216,0.0112,0.1968,-144.695,22.256,-27.622,0.6521,100574.85
0.71,-0.02,0.1777,-131.098,14.39,-41.463,0.7321,100575.07
0.9307,-0.0122,0.1191,-110.793,20.793,-42.622,0.9383,100575.1
1.1494,-0.0361,0.1255,-87.134,19.512,-34.573,1.1568,100575.11
1.208,-0.0244,0.0854,-58.841,-11.707,-32.622,1.2113,100575.48
1.2686,0.0117,0.0884,-45.061,-19.939,-26.402,1.2717,100575.79
1.3501,-0.0757,0.4507,-42.073,-15.854,-24.39,1.4253,100576.27
1.332,-0.1138,0.6895,-51.28,-1.646,-27.927,1.5042,100575.97
0.9604,-0.0737,0.7051,-83.78,12.439,-39.634,1.1937,100576.15
0.8784,0.0273,0.5103,-101.098,-31.707,-60.976,1.0162,100576.05
0.8433,-0.0112,0.4785,-94.573,-21.707,-60.488,0.9696,100576.2
0.748,0.0264,0.418,-82.866,9.451,-56.524,0.8573,100576.48
0.9048,0.1519,0.2666,-96.463,-5.061,-71.463,0.9554,100576.64
0.8022,0.0845,0.2476,-112.439,-75.915,-90.427,0.8438,100576.2
0.3896,0.082,0.2168,-90.915,-71.951,-81.463,0.4534,100576.34
0.4873,0.2827,-0.0732,-46.524,-25.915,-45.915,0.5681,100576.17
0.7329,0.2021,0.0757,-51.768,-46.585,-4.329,0.764,100576.57
0.9702,0.2773,0.0542,-66.707,-19.146,23.415,1.0105,100576.12
1.3472,0.4814,0.0649,-55.732,15.427,22.5,1.4321,100576.9
1.3755,0.2886,0.167,-59.573,0.854,3.476,1.4153,100577.48
1.478,0.0322,0.3481,-41.585,-55.488,-7.012,1.5188,100576.81
1.6523,0.0337,0.5151,-13.659,-81.768,12.073,1.7311,100576.58
1.1665,-0.2065,0.7725,-23.293,5.244,50.549,1.4142,100576.26
0.8896,-0.1943,0.4531,-24.512,-35.671,51.341,1.0171,100575.52
0.7056,-0.1577,0.4072,-27.927,-57.378,43.902,0.8298,100576.22
0.5347,-0.1118,0.3301,-41.89,1.646,33.232,0.6382,100576.5
0.5024,-0.0068,0.1548,-54.756,35.0,10.488,0.5258,100576.55
0.5229,0.0444,0.2466,-87.744,-2.439,-15.854,0.5799,100575.62
0.7314,0.1196,0.0601,-136.951,0.915,-20.793,0.7436,100576.4
1.061,0.0479,-0.4551,-97.927,35.671,12.012,1.1555,100577.21
1.1963,-0.1875,-0.103,-1.585,-47.683,25.183,1.2153,100576.86
1.335,-0.0195,-0.3467,53.72,-94.878,-12.073,1.3794,100577.58
1.6895,0.1089,-0.2017,47.378,-56.159,-19.39,1.7049,100577.01
1.521,-0.0796,0.1631,9.695,-15.305,10.061,1.5318,100576.95
1.2456,-0.2334,0.3721,-2.683,-18.963,6.646,1.3208,100577.52
1.1333,-0.1011,0.375,14.878,-11.28,-3.354,1.198,100577.67
1.1914,0.1704,0.4175,24.024,29.939,-3.415,1.2739,100577.58
0.8452,0.0801,0.4756,9.268,53.902,-4.573,0.9731,100577.27
0.606,0.0229,0.189,5.549,105.0,0.061,0.6352,100576.66
0.6787,0.1841,0.0962,3.78,108.72,-20.366,0.7098,100576.09
0.4785,0.0039,0.1182,-41.524,13.902,-54.024,0.4929,100576.03
0.3442,-0.0674,0.1592,-48.049,34.024,-43.537,0.3852,100576.48
0.5312,0.1006,0.042,-29.268,43.476,-22.744,0.5423,100576.91
0.9136,0.2993,0.0923,-4.878,-2.988,4.207,0.9658,100577.25
1.5029,0.396,0.3667,-1.89,-17.683,38.232,1.5969,100577.38
1.4561,0.1284,0.2095,-26.89,2.927,43.78,1.4766,100577.6
1.3906,-0.0039,0.1016,-14.329,-5.0,5.671,1.3943,100578.12
1.5693,0.2168,0.4922,21.951,-29.512,-7.012,1.6589,100577.29
1.3667,0.0215,0.8228,-5.671,-23.537,21.768,1.5954,100577.04
1.0317,-0.1973,0.606,-34.268,6.646,47.073,1.2127,100576.89
0.8066,-0.3628,0.3262,-15.244,-20.549,55.915,0.9427,100577.12
0.604,-0.2803,0.3291,-3.049,-64.268,34.878,0.7428,100576.81
0.353,-0.1362,0.1821,-16.89,-22.805,4.146,0.4199,100577.2
0.23,-0.0771,0.0186,-29.268,9.207,-21.524,0.2433,100577.97
0.2739,-0.0571,0.0332,-25.0,9.878,-40.0,0.2818,100577.21
0.646,-0.0015,0.1533,-18.354,27.317,-43.11,0.6639,100578.11
1.1753,0.1367,-0.0391,-17.622,22.317,-30.976,1.1839,100577.79
1.4038,0.1206,-0.1812,-27.073,-7.317,-21.951,1.4206,100578.16
1.6143,-0.0581,0.2339,-18.902,-11.463,-9.085,1.6321,100578.47
1.6953,0.0327,0.104,39.207,-32.317,4.024,1.6988,100578.45
1.4048,0.0044,0.4873,70.0,-20.0,4.451,1.4869,100578.3
0.998,0.063,0.4907,91.22,24.268,-4.451,1.1139,100577.66
0.9204,0.103,0.3164,77.5,63.11,-6.89,0.9787,100577.7
0.625,0.0244,0.3857,60.732,73.598,7.561,0.7349,100577.38
0.7612,0.0127,0.1138,17.317,68.293,-4.268,0.7698,100577.72
0.5635,-0.1533,0.0664,-22.134,-6.341,-38.841,0.5877,100576.99
0.3452,-0.1396,-0.0249,-24.268,-3.963,-27.988,0.3732,100577.16
0.605,0.0181,0.1123,-5.0,14.024,2.561,0.6156,100576.56
1.2422,0.3896,0.2212,27.439,-43.902,25.854,1.3205,100576.46
1.3477,0.4131,0.1821,2.988,-33.171,47.439,1.4213,100577.14
1.6553,0.0103,0.4399,-49.451,-7.561,20.122,1.7128,100577.02
1.5474,-0.0581,0.3032,-36.707,-28.293,-20.366,1.5779,100577.43
1.207,-0.064,0.8828,-11.402,-60.854,-3.72,1.4968,100576.25
1.1138,-0.1304,1.043,-46.585,-39.939,10.122,1.5314,100576.36
0.8179,-0.2188,0.2085,-66.707,-16.22,15.122,0.8719,100575.72
0.5195,-0.1753,0.3042,-41.524,-20.61,17.256,0.627,100576.2
0.4663,-0.0117,0.2759,-44.573,0.549,-4.024,0.5419,100575.83
0.5547,0.1108,0.0308,-75.793,70.0,-15.122,0.5665,100576.38
0.6382,0.1123,-0.1621,-90.366,72.744,-7.134,0.668,100576.84
0.8594,0.0127,-0.0669,-41.341,12.5,10.305,0.8621,100577.17
0.9155,-0.0864,-0.0649,20.549,-30.122,1.951,0.9219,100577.03
1.2085,0.0659,0.1177,50.427,0.183,-7.378,1.216,100578.19
1.5591,0.1538,0.1753,61.159,1.768,1.159,1.5764,100578.29
1.7207,0.022,0.2686,60.427,-9.878,6.037,1.7417,100576.76
1.3101,-0.0195,0.9272,82.988,-15.305,21.89,1.6051,100576.84
0.9741,-0.0908,0.9614,79.024,-7.561,36.707,1.3717,100576.67
1.0708,0.1235,0.3774,64.39,-24.634,-0.61,1.1421,100576.8
0.8169,0.1147,0.1821,58.049,-24.329,-26.707,0.8448,100577.5
0.7021,0.0088,0.3027,60.427,-4.817,-27.622,0.7647,100576.54
0.5293,0.0449,0.127,38.841,24.146,-18.78,0.5462,100577.69
0.4575,0.041,0.0483,16.524,18.963,-10.244,0.4619,100577.8
0.6074,-0.0347,0.23,18.963,-32.744,-9.268,0.6504,100577.62
0.645,0.0415,0.1362,10.122,-25.366,-5.61,0.6606,100576.89
1.0635,0.2021,0.0854,-21.159,-16.159,-10.976,1.0859,100575.8
1.3242,0.2173,-0.125,-56.159,-55.488,-9.695,1.3477,100575.51
1.4121,-0.0566,0.0752,-56.768,-52.378,1.098,1.4152,100575.41
1.6035,0.0532,0.519,15.244,-31.159,-1.463,1.6863,100575.69
1.627,0.1372,0.8071,-11.768,65.305,9.268,1.8213,100575.8
1.3203,-0.2939,0.6606,-74.268,60.671,17.805,1.5054,100576.64
0.8115,-0.3452,0.3701,-39.939,-33.537,31.28,0.9564,100575.77
0.5713,-0.1313,0.228,-17.683,-29.146,21.402,0.629,100576.02
0.5479,-0.0293,0.063,-44.695,29.878,5.244,0.5522,100575.88
0.3896,-0.0415,-0.0342,-59.085,40.061,-11.402,0.3933,100576.14
0.4233,-0.0586,0.0811,-47.012,13.415,-24.512,0.435,100575.76
0.7319,0.062,0.0444,-35.488,31.159,-18.476,0.7359,100576.09
0.9731,-0.0005,0.0005,-25.305,70.732,0.061,0.9731,100575.96
1.2007,-0.1108,0.1289,3.476,30.671,-0.732,1.2127,100576.74
1.5781,0.0913,0.1201,31.951,-15.793,-6.524,1.5853,100577.47
1.7827,-0.0269,0.3413,14.939,-50.671,-0.061,1.8153,100577.15
1.5469,-0.2876,0.6479,-14.512,-62.5,-17.805,1.7016,100576.17
1.0166,-0.1558,0.6787,1.89,-39.512,-0.366,1.2322,100575.81
0.771,0.0391,0.4805,26.646,-71.341,15.549,0.9093,100576.41
1.0488,0.0894,0.3984,9.146,-54.329,-23.293,1.1255,100576.86
0.8135,-0.0371,0.354,-34.573,-18.476,-45.976,0.8879,100575.21
0.4473,-0.1172,0.1787,-51.829,-7.561,-40.427,0.4957,100574.6
0.4878,-0.0483,0.1499,-52.622,9.512,-39.207,0.5126,100574.5
0.627,-0.0088,0.1333,-56.28,-9.573,-41.341,0.641,100575.02
0.6338,-0.0283,0.0542,-71.646,-0.183,-35.976,0.6367,100574.67
0.7666,0.0791,-0.1382,-95.793,30.488,-27.927,0.783,100574.77
1.0747,0.1558,-0.251,-86.463,5.488,-17.439,1.1146,100574.72
1.2432,0.0864,0.0156,-58.598,5.0,8.415,1.2463,100575.54
1.4512,0.0811,0.1821,-50.976,-11.89,19.878,1.4648,100575.42
1.5762,0.0015,0.3691,-53.659,-56.098,11.89,1.6188,100574.86
1.4155,-0.188,0.8677,-70.793,-18.049,8.11,1.6709,100575.39
1.1465,-0.2363,0.4707,-92.805,-0.122,-1.89,1.2617,100574.82
0.9868,-0.2554,0.3623,-86.524,-35.122,-1.098,1.0818,100574.62
0.8413,-0.1841,0.4932,-87.073,-38.963,-0.61,0.9924,100574.98
0.7944,-0.0586,0.1797,-95.976,3.049,-1.89,0.8166,100574.86
0.8262,0.0225,-0.0503,-105.549,28.902,-3.598,0.828,100574.91
0.752,-0.0215,0.0713,-110.427,19.878,-3.415,0.7556,100575.06
0.6987,-0.0605,0.1323,-109.268,15.549,-4.878,0.7137,100574.43
0.7817,-0.0981,0.1118,-108.78,25.976,-16.159,0.7958,100574.31
0.9482,-0.0972,0.0371,-104.878,10.671,-31.037,0.9539,100573.51
1.0815,0.0044,-0.0581,-89.451,1.524,-38.963,1.0831,100573.41
1.2085,0.1133,-0.0825,-81.402,13.171,-42.866,1.2166,100574.09
1.3452,0.0547,0.0996,-79.756,1.89,-44.39,1.35,100574.24
1.3701,-0.0718,0.4956,-81.768,-26.768,-56.159,1.4588,100574.23
1.21,-0.0679,0.4829,-85.732,-48.232,-66.768,1.3045,100574.73
1.062,-0.0293,0.4585,-90.854,-51.951,-53.171,1.1571,100575.23
1.0181,0.0371,0.6245,-103.598,-21.829,-42.927,1.1949,100574.39
0.9868,0.0459,0.4517,-131.037,-15.366,-52.805,1.0862,100574.25
0.814,-0.0205,0.2773,-139.878,-41.22,-52.988,0.8602,100574.62
0.6709,0.0078,0.3159,-123.476,-33.963,-43.476,0.7416,100574.79
0.6597,0.1846,-0.1748,-112.012,-32.927,-37.805,0.707,100575.28
0.8159,0.2358,-0.23,-126.159,-49.634,-56.402,0.8799,100575.27
0.728,0.1987,0.106,-140.122,-67.744,-51.341,0.7621,100575.9
0.5874,0.2715,0.0742,-113.049,-25.61,-13.476,0.6513,100575.97
0.7432,0.2925,0.0532,-84.085,-27.378,7.683,0.8004,100576.14
1.144,0.29,0.0884,-75.427,-53.11,13.415,1.1835,100575.91
1.3076,0.2261,-0.0356,-87.561,-21.89,21.646,1.3275,100576.23
1.6323,0.127,-0.0195,-64.268,1.768,15.488,1.6374,100576.95
1.8389,0.1382,0.145,-50.488,-29.878,25.732,1.8497,100576.16
1.3662,-0.0327,0.4658,-64.573,18.232,48.476,1.4438,100575.82
1.0273,-0.2627,0.541,-52.622,-10.0,47.622,1.1904,100575.81
0.7471,-0.1787,0.3423,-38.476,-86.646,42.5,0.841,100575.61
0.4858,-0.064,0.2788,-51.159,-58.902,32.622,0.5638,100576.54
0.3652,-0.0342,0.1416,-69.268,-23.354,20.671,0.3932,100576.25
0.4526,-0.0103,0.0161,-74.146,5.0,9.39,0.453,100576.68
0.7651,0.0034,0.0645,-80.793,23.171,-1.341,0.7679,100576.62
1.0151,0.0205,-0.1675,-79.817,17.256,5.854,1.0291,100575.7
1.3013,-0.0078,-0.481,-52.927,12.317,23.841,1.3873,100576.0
1.3315,-0.0439,-0.1636,-28.476,37.195,23.963,1.3423,100575.96
1.3789,-0.1221,0.0376,-24.329,42.073,3.537,1.3848,100576.56
1.5991,-0.0273,0.0483,-5.183,53.902,1.22,1.6001,100576.55
1.519,-0.3179,0.5649,-4.939,139.756,21.646,1.6516,100576.4
1.147,-0.2432,0.9556,-9.512,138.72,9.146,1.5125,100576.07
0.7188,0.0513,0.54,-5.0,43.78,-22.073,0.9005,100576.07
0.5889,0.0977,0.5615,6.037,-0.793,-55.427,0.8195,100576.42
0.4429,0.0483,0.4312,7.988,5.671,-32.012,0.62,100575.91
0.4116,0.0596,0.3667,0.732,45.305,-12.5,0.5545,100575.32
0.7061,0.0503,0.4321,-18.354,19.695,-36.402,0.8293,100576.21
0.7104,0.0044,0.1885,-49.756,17.378,-37.561,0.735,100575.87
0.582,0.1104,0.0508,-29.817,2.5,-47.073,0.5946,100575.73
1.041,0.3687,0.1753,18.72,-82.744,-44.329,1.1182,100576.58
1.1675,0.3936,0.1934,15.366,-77.561,6.341,1.2471,100576.01
1.3604,0.2222,0.3984,12.866,-54.451,4.451,1.4348,100576.4
1.4492,0.1494,0.5063,10.793,-62.988,-27.134,1.5424,100575.84
1.395,0.1548,0.6768,16.463,-54.146,-5.793,1.5582,100575.9
1.1616,-0.0732,0.9937,8.598,11.402,22.439,1.5304,100575.45
1.0796,-0.2026,0.6235,-17.622,9.756,18.476,1.2631,100575.75
0.7417,-0.0762,0.3628,-22.622,-17.622,24.024,0.8292,100574.98
0.3384,-0.0576,0.3442,-39.939,-14.634,25.427,0.4861,100574.62
0.2349,-0.0854,0.0488,-49.817,-13.72,19.878,0.2546,100574.7
0.4102,-0.0166,-0.1108,-32.256,10.366,9.573,0.4252,100575.66
0.687,-0.0435,0.127,-19.512,26.89,1.463,0.7,100575.48
1.0488,-0.0068,0.1021,-23.293,33.78,21.768,1.0538,100575.12
1.2524,-0.0195,-0.123,-11.524,18.11,27.866,1.2586,100574.7
1.4863,-0.0493,0.2666,20.305,-17.317,4.512,1.5109,100574.88
1.519,0.1094,0.2583,37.683,-53.232,-19.756,1.5447,100575.63
1.6465,0.1675,0.1875,34.817,-39.024,-15.732,1.6656,100576.31
1.25,-0.2285,0.8555,47.927,20.122,15.122,1.5318,100576.0
0.9829,-0.126,0.731,62.683,2.256,23.232,1.2314,100575.77
0.9961,0.3384,0.4043,56.89,-62.5,-22.195,1.127,100575.59
0.7783,0.1685,0.373,40.244,-30.061,-18.902,0.8794,100574.5
0.4917,-0.0317,0.3628,46.28,10.854,4.695,0.6119,100574.79
0.5112,0.0234,0.1309,43.232,13.72,4.939,0.5282,100574.16
0.625,-0.0015,0.1436,5.854,7.195,-10.732,0.6413,100574.51
0.5493,0.0068,0.0996,-23.232,-5.061,-13.415,0.5583,100574.77
0.6104,0.1797,-0.1836,-39.756,-41.402,-16.707,0.6622,100575.46
1.1245,0.1943,-0.127,-50.0,-76.646,-17.195,1.1482,100575.97
1.335,0.0317,0.0098,-39.878,-62.866,6.098,1.3354,100576.21
1.7119,0.1475,-0.3057,-21.463,-55.427,-2.012,1.7452,100576.15
1.6924,0.3008,0.2217,43.598,-59.695,22.073,1.7331,100575.23
0.9731,-0.1401,0.5088,22.927,-33.537,23.659,1.107,100576.03
1.2505,-0.1738,0.6309,6.585,-52.866,-33.415,1.4114,100576.13
0.8867,-0.0332,0.2939,-26.768,-16.768,0.61,0.9348,100575.79
0.6206,0.0063,0.1191,-37.744,48.902,14.268,0.632,100575.34
0.6436,0.0732,-0.0176,-38.537,69.085,15.305,0.6479,100576.14
0.6113,0.0405,-0.0952,-24.817,67.866,30.061,0.62,100576.98
0.6851,-0.0566,-0.0098,6.524,62.683,29.756,0.6875,100575.89
0.9595,-0.1411,0.0039,43.659,58.476,29.512,0.9698,100576.12
1.1318,-0.0063,0.0254,39.39,63.171,25.0,1.1321,100576.7
1.3101,0.0498,0.0493,22.012,52.561,0.793,1.3119,100577.25
1.9609,0.1519,-0.2168,15.122,-4.512,-41.89,1.9787,100577.78
1.6177,-0.2979,0.9111,75.488,-13.293,10.244,1.8804,100577.68
0.4468,-0.3223,1.5703,68.598,-16.037,40.366,1.6641,100576.99
0.9683,0.4556,0.5195,-34.878,-93.841,-41.037,1.1895,100576.72
1.3286,0.4746,-0.3604,-75.488,-57.134,-29.146,1.4561,100576.75
0.7578,0.041,0.001,14.939,18.293,38.659,0.7589,100576.62
0.5933,-0.1226,0.2207,40.61,24.878,39.39,0.6447,100576.3
0.5122,-0.0938,0.104,5.671,-11.098,23.293,0.531,100576.41
0.3008,0.084,-0.1216,-0.183,-30.549,14.024,0.3351,100576.73
0.3862,0.2739,-0.1128,0.0,-31.951,-16.402,0.4868,100576.23
1.3672,0.1729,-0.2886,-20.732,-19.573,-36.463,1.408,100576.66
1.377,-0.1846,0.0156,5.915,23.902,12.744,1.3894,100576.3
1.519,-0.2153,0.5186,18.598,-22.683,-1.098,1.6195,100576.01
1.5562,0.1333,0.0229,-39.329,-37.622,-2.195,1.562,100575.68
1.0337,-0.0542,0.104,-24.939,-14.512,16.646,1.0403,100575.02
1.0176,-0.1382,0.7627,29.878,-21.037,-15.854,1.2792,100574.96
1.0229,0.0322,0.6431,-18.354,-0.061,-25.183,1.2087,100575.28
1.0195,-0.022,0.0044,-70.122,15.366,-12.866,1.0198,100575.63
0.7603,-0.1016,-0.0054,-26.89,35.244,20.488,0.767,100575.28
0.4395,-0.0752,0.2402,0.427,46.463,29.634,0.5064,100575.05
0.6548,-0.0308,0.0845,-19.39,40.366,2.439,0.6609,100575.34
0.7393,-0.0679,-0.0605,-12.5,27.622,0.366,0.7448,100575.42
0.9268,-0.0767,-0.0977,10.427,9.451,-4.085,0.935,100574.86
1.0015,-0.1777,-0.084,18.476,-3.049,0.854,1.0206,100575.29
1.1318,-0.2222,-0.0679,26.89,-27.073,-16.098,1.1554,100574.62
1.583,-0.1318,0.2095,41.28,-21.22,-36.28,1.6022,100574.98
1.5659,0.1689,0.2612,32.5,-43.841,-16.707,1.5965,100574.49
1.3877,0.0698,0.1064,14.451,-39.817,2.622,1.3935,100573.61
1.2578,-0.0771,0.564,63.049,-31.341,0.427,1.3806,100573.41
1.0474,0.209,0.7222,47.744,-43.659,-2.317,1.2893,100574.02
0.666,0.1211,0.0552,-43.659,-34.146,-3.537,0.6792,100574.41
0.3535,-0.0752,0.0674,-34.817,-20.854,-22.5,0.3677,100574.87
0.6968,0.1045,-0.2095,-11.646,-14.939,-45.244,0.735,100574.81
0.8301,0.1475,0.0254,8.659,22.927,-15.854,0.8435,100574.53
0.6694,-0.0132,0.1689,-19.024,2.317,8.537,0.6905,100574.06
0.8535,0.0083,-0.29,-37.073,-13.659,2.317,0.9015,100574.94
0.7969,0.1689,-0.1836,-34.756,-9.695,7.256,0.835,100575.49
1.3203,0.1577,-0.3511,-65.366,-1.159,-1.89,1.3753,100574.8
1.2471,-0.1787,-0.1968,-67.439,15.488,5.61,1.2751,100574.28
1.2725,0.1685,0.0259,-14.268,-5.0,-24.451,1.2838,100575.13
1.6421,0.1445,0.3828,-18.476,-11.951,-19.817,1.6923,100575.05
1.3066,-0.2227,0.5303,-53.72,-25.183,-4.695,1.4276,100575.24
0.8994,-0.2085,0.123,-51.28,-35.793,2.256,0.9314,100574.29
0.8271,-0.123,0.1157,-9.085,12.256,10.183,0.8442,100573.92
0.7891,-0.1147,0.3423,-17.805,38.354,-7.561,0.8677,100574.27
0.7739,-0.0107,0.0576,-70.854,2.317,-19.512,0.7761,100574.07
0.7793,-0.0171,-0.1621,-69.939,2.805,-10.732,0.7962,100573.91
0.7485,-0.0815,-0.103,-43.232,7.439,-3.232,0.76,100574.66
0.7271,-0.1455,-0.1528,-34.573,15.183,-5.915,0.7571,100575.34
1.0801,-0.1118,-0.0562,-17.012,12.744,-19.817,1.0873,100575.61
1.2031,-0.022,-0.0151,-38.049,-9.573,-21.707,1.2034,100575.57
1.1191,0.0449,-0.2446,-69.573,-9.268,-23.78,1.1464,100575.18
1.6377,0.1118,-0.2329,-52.134,-15.427,-34.878,1.6579,100574.88
1.5298,-0.1089,0.4346,-57.744,-5.366,-26.768,1.594,100575.15
1.0356,-0.3042,0.7368,-101.037,-37.622,-40.732,1.3069,100575.5
1.0205,0.1289,0.416,-101.098,-74.756,-54.024,1.1096,100575.48
1.1104,0.4956,0.3335,-116.829,-40.976,-64.756,1.2608,100576.62
1.0513,0.2383,0.3218,-152.744,-45.549,-54.146,1.1249,100576.12
0.7593,0.1167,0.2075,-154.817,-29.756,-26.951,0.7957,100576.37
0.623,0.1797,0.106,-148.293,-0.061,-16.402,0.657,100576.18
0.5898,0.1787,0.1396,-156.89,-20.793,-7.805,0.6319,100576.52
0.5977,0.0859,0.0449,-176.159,-52.012,6.463,0.6055,100576.3
0.7329,0.0986,0.0166,-166.524,-32.927,7.866,0.7397,100576.64
0.8042,0.2231,0.0449,-145.427,-17.317,6.463,0.8358,100576.27
0.9067,0.2661,-0.0464,-135.244,-48.11,1.402,0.9461,100575.84
1.0195,0.2075,-0.1123,-128.049,-51.22,2.927,1.0465,100575.28
1.2539,0.1958,0.0757,-118.171,-8.11,5.671,1.2714,100575.87
1.6143,0.1338,0.3818,-112.866,-27.012,1.646,1.6642,100576.3
1.8555,-0.04,0.5132,-85.122,-49.146,28.354,1.9255,100576.26
1.4038,-0.1255,0.5083,-59.39,-31.402,52.988,1.4983,100576.45
0.7412,-0.2114,0.4844,-62.866,-32.805,56.768,0.9103,100576.47
0.479,-0.1689,0.2563,-71.159,-51.22,35.793,0.5689,100576.48
0.5913,0.0195,0.0391,-89.024,24.207,-6.037,0.5929,100576.46
0.6333,0.0298,-0.0693,-102.927,77.195,-33.537,0.6378,100576.32
0.7119,0.04,0.2891,-105.488,30.915,-44.512,0.7694,100575.84
0.9746,0.0791,0.0566,-121.89,-8.049,-37.805,0.9795,100576.23
1.0693,0.1235,-0.2227,-102.134,-23.659,-29.573,1.0992,100576.62
1.2085,0.1621,-0.0571,-71.463,-22.317,-29.268,1.2207,100577.91
1.3062,0.125,-0.1855,-36.585,-24.634,-19.512,1.3252,100577.41
1.3574,-0.0029,0.0303,-4.085,-12.561,-4.146,1.3578,100577.16
1.3438,-0.0601,0.6553,9.634,9.451,1.098,1.4962,100576.97
1.2388,-0.2148,0.3364,-23.72,-4.634,-8.415,1.3015,100577.59
1.0518,-0.0986,0.5396,-11.768,-60.0,-26.402,1.1862,100576.83
1.2329,0.3662,0.3862,-35.549,-126.585,-74.146,1.3429,100577.24
1.0771,0.208,-0.0356,-91.28,-48.841,-49.146,1.0976,100577.41
0.9409,0.1748,0.1753,-43.232,37.805,-0.549,0.9729,100575.97
0.7773,0.1831,0.1226,-67.439,57.683,30.061,0.808,100575.48
0.5083,-0.0049,0.1836,-105.122,-25.0,29.512,0.5405,100575.6
0.3569,0.1016,-0.0356,-93.232,-41.402,11.098,0.3728,100576.2
0.4507,0.2285,-0.0264,-68.415,-24.634,-5.061,0.506,100576.61
0.6963,0.1807,0.0571,-61.463,-52.317,-7.317,0.7216,100575.59
1.1104,0.1167,-0.0396,-54.634,-58.902,-22.866,1.1172,100576.05
1.4028,0.1328,-0.2432,-56.585,-53.049,-25.122,1.4299,100575.66
1.4814,0.3247,-0.4072,-35.793,-38.232,0.244,1.5703,100575.73
1.4346,0.355,-0.0796,-13.841,2.439,33.659,1.48,100575.55
1.3486,0.1978,0.4004,-38.232,35.915,45.366,1.4206,100574.78
1.2974,0.0254,0.4883,-57.988,-3.537,20.915,1.3864,100575.7
0.8774,0.0674,0.0962,-6.28,-20.793,36.829,0.8853,100575.99
0.6831,0.041,0.1899,32.561,1.585,47.5,0.7102,100575.98
0.5918,0.0337,0.2017,-5.488,6.037,26.951,0.6261,100576.62
0.6577,0.0356,-0.0981,-59.878,18.049,20.488,0.666,100577.31
0.7002,-0.0776,-0.1665,-40.0,-3.841,22.5,0.7239,100577.11
0.8262,-0.0947,-0.0659,-12.805,25.61,13.293,0.8342,100577.31
0.8623,-0.187,-0.0386,-2.866,30.122,7.622,0.8832,100576.96
1.147,-0.0645,-0.1611,14.878,-19.512,-12.378,1.16,100577.2
1.1719,0.0454,-0.2896,11.341,-47.195,-18.232,1.208,100577.73
1.3032,0.085,-0.2715,30.61,-25.549,-12.073,1.3339,100578.27
1.4438,0.1035,-0.2134,43.171,-6.524,-9.512,1.4632,100578.28
1.5195,0.0376,0.4067,54.146,17.439,3.11,1.5735,100578.55
1.3037,0.0562,0.5308,40.305,8.232,17.195,1.4087,100578.04
1.1074,0.3369,0.2183,0.915,-35.793,6.951,1.1779,100577.55
0.8359,0.1289,0.125,-27.927,-40.366,-0.305,0.855,100576.91
0.5298,-0.1401,0.144,-2.927,1.22,2.317,0.5666,100576.45
0.6104,0.0576,-0.0068,29.817,51.22,1.89,0.6131,100576.55
0.5776,0.0635,-0.063,13.841,40.488,11.585,0.5845,100576.3
0.583,0.02,0.0312,-5.305,11.098,8.415,0.5842,100576.83
0.9541,0.2119,-0.1763,-21.037,14.695,-5.366,0.9931,100576.86
1.4048,0.355,-0.4141,-45.61,12.5,2.195,1.5069,100576.28
0.8599,0.0312,0.1147,-39.085,-18.659,34.207,0.868,100576.91
1.4888,-0.0723,-0.1055,-33.537,-33.72,9.268,1.4942,100576.52
1.5234,0.0298,-0.0288,-11.89,-27.439,-19.817,1.524,100576.84
1.1396,0.124,0.3345,13.049,-2.439,-25.122,1.1942,100576.48
1.2334,0.0322,0.2837,2.439,21.098,-23.598,1.266,100576.82
1.0566,-0.1631,0.4536,-9.695,-13.659,-5.61,1.1614,100576.95
0.7529,-0.1255,0.0688,-17.439,5.549,3.659,0.7664,100577.26
0.7373,-0.0254,-0.0435,10.366,21.463,-3.72,0.739,100576.5
0.4785,-0.0488,0.2964,9.451,5.549,1.951,0.565,100575.44
0.6001,-0.0537,-0.0161,-18.902,4.146,-3.659,0.6027,100575.62
0.6685,-0.0024,-0.1235,7.805,5.366,-3.598,0.6798,100576.38
0.8442,0.0054,-0.0986,15.793,-0.488,-1.098,0.85,100575.98
1.1045,-0.0469,-0.1494,0.305,-2.073,4.329,1.1155,100576.62
1.2524,-0.0391,-0.1348,1.89,-9.573,0.549,1.2603,100577.14
1.4819,0.0571,-0.3892,5.488,-20.122,-12.256,1.5332,100577.29
1.6265,-0.0098,-0.0215,45.793,-41.402,-13.232,1.6266,100577.54
1.5234,-0.0107,0.4854,77.744,-33.72,-11.159,1.5989,100577.6
1.1606,0.1499,0.3198,42.256,-58.415,-22.073,1.2132,100577.89
0.9873,0.3564,0.1724,14.634,-65.976,-35.122,1.0637,100578.86
0.7925,0.1621,-0.1445,-13.171,-7.927,-16.28,0.8217,100578.48
0.5771,-0.0371,-0.0273,8.72,36.89,5.305,0.579,100577.84
0.5493,0.0049,-0.0151,20.061,63.963,13.72,0.5495,100578.43
0.3999,-0.0103,-0.0444,4.939,38.72,12.439,0.4025,100577.05
0.585,0.0479,-0.1274,-19.207,2.012,-13.354,0.6006,100577.49
0.8267,0.2339,-0.1362,-30.305,-11.463,-26.829,0.8698,100577.11
1.3276,0.271,-0.1904,-39.451,-19.024,-16.341,1.3683,100577.52
1.2637,0.1309,-0.2578,-17.988,-9.146,24.939,1.2963,100576.98
1.4824,0.1357,-0.4443,0.793,-18.11,18.232,1.5535,100577.55
1.3345,0.0449,0.105,-25.488,-36.707,18.598,1.3393,100578.36
1.2319,-0.144,0.375,-20.732,22.256,26.037,1.2958,100577.98
1.0117,-0.144,0.3452,22.866,37.439,36.463,1.0787,100577.32
0.7441,-0.0752,0.2305,37.622,-3.11,33.902,0.7826,100576.92
0.6367,-0.0605,0.0771,-11.707,2.988,4.756,0.6442,100576.39
0.6489,0.0215,-0.0674,-50.61,47.012,-9.634,0.6528,100576.62
0.4985,-0.0122,-0.1064,-44.451,24.451,-8.72,0.5099,100576.65
0.6553,-0.0522,-0.1367,-16.341,-16.159,-18.841,0.6714,100577.05
0.7612,-0.0601,-0.1191,11.402,2.683,-18.841,0.7728,100576.98
1.1987,-0.0679,-0.0239,9.085,-0.244,-22.805,1.2009,100577.67
1.3501,0.0078,-0.312,8.354,-21.89,-17.195,1.3857,100578.92
1.4473,0.2104,-0.5752,27.256,-8.232,-12.195,1.5715,100579.36
1.5527,0.2515,-0.375,29.756,22.866,-4.451,1.617,100578.71
1.417,-0.083,0.374,35.854,-2.134,0.61,1.4679,100578.48
1.1094,0.0161,0.3833,47.683,-29.573,-10.183,1.1738,100577.94
0.9966,0.2646,0.2495,52.439,-12.378,-4.573,1.0609,100577.41
0.9419,0.3647,0.1973,45.305,10.061,-2.256,1.0291,100577.64
0.6719,0.0884,0.0972,-0.244,27.256,-5.305,0.6846,100576.83
0.6128,0.0088,-0.0718,-11.524,38.049,-4.268,0.617,100576.47
0.5049,-0.0376,-0.1421,-6.463,50.854,3.841,0.5258,100576.55
0.5171,-0.1304,-0.0288,0.183,25.305,3.841,0.534,100577.36
0.6953,0.0381,-0.0391,-16.89,26.707,2.866,0.6974,100577.49
0.9492,0.2563,-0.2134,-44.695,-19.512,-10.305,1.0061,100577.06
1.2583,0.2417,-0.1997,-38.171,-52.073,2.256,1.2968,100576.38
1.5161,0.1128,-0.043,-4.085,-95.061,-5.061,1.5209,100576.32
1.3237,-0.2041,0.3911,-13.171,-48.72,9.756,1.3953,100576.06
1.2148,-0.2495,0.1753,4.207,7.561,15.549,1.2525,100575.23
0.8921,-0.1406,0.2251,36.646,-0.793,26.646,0.9307,100574.98
0.5815,-0.085,0.3325,18.415,-5.915,12.622,0.6753,100574.55
0.5225,-0.0073,0.0493,-45.427,24.939,-13.232,0.5248,100575.35
0.6157,-0.0229,-0.0845,-80.244,51.098,-18.902,0.6219,100575.55
0.7046,-0.0601,-0.126,-66.768,34.512,-12.805,0.7183,100575.86
0.8438,-0.0479,-0.1729,-47.683,45.915,-8.232,0.8626,100575.59
0.9688,-0.0249,-0.2207,-33.537,72.622,-3.049,0.9939,100575.88
1.1069,-0.0791,-0.0957,-22.5,41.037,-9.634,1.1139,100576.36
1.3237,0.0439,-0.0991,-9.024,-31.524,-21.341,1.3282,100577.3
1.5605,0.123,-0.2593,-26.89,-25.305,-13.171,1.5867,100577.2
1.6196,-0.0576,0.0205,-30.0,23.11,-1.89,1.6208,100577.2
1.2905,-0.103,0.397,5.671,-9.085,-0.427,1.3541,100577.57
0.9819,0.0679,0.3228,12.683,-59.268,-0.122,1.0358,100576.87
0.939,0.1821,0.2876,-24.512,-47.683,-13.354,0.9988,100575.73
0.9297,0.0737,0.1558,-67.378,-19.695,-34.451,0.9455,100575.15
0.7749,-0.0371,0.2334,-78.293,35.122,-34.268,0.8101,100575.68
0.5576,-0.0977,0.2871,-80.488,55.549,-15.61,0.6347,100575.59
0.5391,-0.0957,0.1899,-64.939,-15.0,-13.049,0.5795,100575.88
0.6685,-0.0435,0.1289,-62.134,-15.305,-13.354,0.6822,100575.4
0.8042,0.1621,-0.0513,-50.427,14.512,-19.329,0.822,100575.13
1.1128,0.3896,-0.1899,-75.732,-32.744,15.183,1.1942,100575.94
1.1187,0.0361,-0.1846,-84.512,-35.183,24.207,1.1344,100576.39
1.3223,-0.04,-0.1606,-57.683,-26.707,8.476,1.3326,100576.73
1.4497,0.0044,0.3159,-41.768,-16.646,4.573,1.4837,100576.5
1.3271,-0.0938,0.6074,-69.878,0.122,1.89,1.4626,100575.74
1.207,-0.1484,0.3921,-86.159,-33.232,-2.012,1.2778,100575.99
0.998,-0.1875,0.335,-90.122,-36.341,16.829,1.0693,100576.18
0.7153,-0.2124,0.2759,-99.634,-12.378,18.963,0.7956,100575.72
0.7109,-0.1045,0.1021,-97.5,17.195,0.244,0.7258,100575.87
0.7876,0.021,-0.0356,-96.768,39.329,-8.171,0.7887,100575.86
0.7939,0.0532,0.0386,-95.854,16.463,-0.976,0.7967,100575.5
0.8281,0.0361,0.0903,-96.524,24.756,6.707,0.8338,100575.84
0.9556,0.0674,-0.1406,-93.598,26.28,-3.963,0.9682,100576.07
1.041,0.0737,-0.2085,-81.89,-6.159,-20.061,1.0642,100575.66
1.1528,0.1133,-0.1333,-70.0,-15.976,-28.049,1.166,100576.21
1.3853,0.0869,-0.0767,-68.11,-11.829,-26.768,1.3901,100576.73
1.4541,-0.1089,0.1851,-77.927,16.585,-20.244,1.4699,100576.89
1.3481,-0.1968,0.3774,-85.61,8.902,-36.951,1.4137,100576.52
0.9937,-0.2217,0.4521,-102.317,-16.951,-45.061,1.114,100576.47
0.8457,-0.0308,0.5811,-102.561,-20.183,-32.927,1.0265,100576.95
1.0015,0.0918,0.7876,-117.683,-11.037,-37.744,1.2774,100577.06
0.9907,0.146,0.6504,-151.402,-16.22,-54.512,1.1941,100577.52
0.8042,0.1504,0.3481,-179.695,-16.463,-64.146,0.8891,100577.27
0.7056,0.1538,0.1147,-180.793,-30.976,-69.146,0.7312,100577.34
0.584,0.1021,-0.0645,-146.89,-13.659,-58.537,0.5963,100576.98
0.6514,0.1177,0.0234,-104.39,2.317,-40.122,0.6623,100575.85
0.8252,0.1621,0.1099,-94.146,-42.561,-25.61,0.8481,100576.12
0.772,0.105,0.1738,-108.415,-52.622,-3.049,0.7982,100575.92
0.8486,0.1309,0.2617,-119.756,-41.159,7.134,0.8977,100575.54
1.0791,0.2388,0.1426,-127.866,-41.768,3.049,1.1144,100575.25
1.2593,0.2773,0.1187,-134.39,-46.22,-3.902,1.2949,100575.16
1.3506,0.29,0.2422,-127.5,-19.695,-3.171,1.4024,100576.08
1.3496,0.1875,0.3394,-108.659,1.829,-1.037,1.4042,100576.03
1.3296,0.0146,0.292,-71.098,-29.695,22.866,1.3614,100576.74
1.0674,-0.1313,0.2949,-36.89,-31.585,52.805,1.1151,100576.41
0.8306,-0.1406,0.2417,-35.122,-20.0,46.28,0.8764,100577.27
0.6641,-0.1401,0.3506,-39.207,-18.476,27.622,0.7639,100577.29
0.665,-0.1016,0.2393,-51.22,17.5,16.768,0.714,100577.07
0.7881,-0.0571,-0.043,-59.573,32.805,11.341,0.7913,100576.56
0.8276,-0.0483,0.0317,-35.488,26.646,17.622,0.8297,100576.89
0.812,-0.0776,0.1113,-18.049,23.293,13.902,0.8233,100576.9
0.9097,-0.0088,0.1362,-18.659,30.366,2.073,0.9199,100577.4
1.1724,0.0234,0.1562,-45.061,-0.122,-32.805,1.183,100577.38
1.4653,-0.0757,-0.0767,-71.098,-4.573,-45.183,1.4693,100578.21
1.707,-0.1143,-0.1177,-17.195,-0.976,-27.195,1.7149,100577.87
1.6187,-0.1094,0.1685,40.305,7.195,3.72,1.6311,100577.24
1.2334,-0.0991,0.501,67.744,12.073,9.451,1.3349,100577.41
0.8857,0.0049,0.5674,62.073,-1.22,2.134,1.0519,100576.91
0.9277,0.168,0.3516,47.622,-4.329,-13.963,1.0062,100576.64
0.7935,0.0889,0.4126,27.561,-12.439,-16.28,0.8987,100576.45
0.6196,0.019,0.3442,12.927,-18.171,-2.622,0.7091,100576.91
0.5786,0.022,0.1763,6.098,-4.329,13.902,0.6053,100577.13
0.6226,-0.0571,0.1655,-6.768,-7.805,14.817,0.6467,100577.17
0.6816,-0.064,-0.0049,-23.841,-11.951,-4.268,0.6847,100577.33
0.7422,0.0845,-0.0781,-24.756,-35.671,-22.134,0.7511,100576.57
0.8721,0.1338,0.0054,-18.11,-64.024,-16.524,0.8823,100576.99
1.0435,0.1636,-0.1313,-14.512,-25.976,4.207,1.0643,100576.69
1.437,0.0986,0.1826,-10.488,15.732,23.537,1.4519,100576.34
1.6382,0.0117,0.2666,-13.293,-28.537,11.159,1.6598,100575.52
1.3896,-0.0239,0.4707,-11.585,-39.024,-4.329,1.4674,100575.59
1.3667,-0.0664,0.7202,-11.037,-2.744,-1.22,1.5463,100575.27
1.2505,-0.0859,0.3198,-25.244,2.561,5.122,1.2936,100575.12
0.771,-0.1274,0.2271,-19.207,-22.683,11.341,0.8138,100575.42
0.4863,-0.0713,0.1499,-17.073,-25.61,1.524,0.5139,100575.99
0.52,-0.0518,-0.1118,-37.378,0.671,-10.915,0.5344,100575.83
0.5273,-0.1177,-0.1367,-37.073,32.073,-11.341,0.5573,100576.04
0.6177,-0.062,-0.0679,-5.488,18.476,-8.171,0.6245,100576.38
0.7754,0.0195,-0.0283,-7.561,19.268,-6.28,0.7762,100576.24
1.1826,0.0078,-0.1699,-22.683,13.841,0.244,1.1948,100576.98
1.2305,-0.0229,-0.125,0.183,-16.402,12.012,1.237,100577.68
1.3877,-0.0713,0.1904,19.451,-12.256,-4.39,1.4025,100577.22
1.6201,0.1255,0.0957,27.256,-42.195,-15.854,1.6278,100576.47
1.2651,0.1289,0.1855,16.463,-34.207,-4.512,1.2852,100575.45
1.2666,-0.0386,0.7241,31.768,-7.683,0.976,1.4595,100574.8
1.2207,0.1968,0.4297,41.768,-17.744,8.171,1.309,100574.18
0.8677,0.1479,0.1084,18.902,-20.305,-4.695,0.8868,100573.84
0.5752,-0.0977,0.2368,16.89,-0.183,-12.317,0.6297,100574.2
0.5771,-0.0542,0.0596,18.659,14.207,-8.293,0.5827,100573.71
0.5835,0.0215,-0.1021,15.732,8.841,-3.902,0.5927,100574.57
0.6196,0.0137,-0.1499,5.549,-0.793,-10.427,0.6377,100574.86
0.603,0.0391,-0.0518,-0.854,-9.024,-25.671,0.6065,100574.84
0.8818,0.0796,-0.0806,-10.122,-28.72,-25.305,0.8891,100574.18
1.3394,0.1807,-0.2461,-24.085,-27.805,-8.841,1.3737,100574.31
1.3701,0.1064,-0.0259,-22.012,1.768,9.695,1.3745,100575.66
1.5176,0.0991,0.083,-31.646,-15.671,12.5,1.5231,100575.52
1.5054,0.103,0.0449,-32.805,-29.817,13.232,1.5096,100575.44
1.3301,0.0107,0.3091,-30.488,17.195,20.0,1.3656,100574.98
1.0977,-0.0552,0.1602,-42.439,8.598,15.244,1.1107,100575.13
0.9097,-0.1128,0.0405,-33.902,-17.378,24.329,0.9175,100574.74
0.6206,-0.1177,0.1704,-23.171,4.756,19.634,0.6542,100574.32
0.4443,-0.0342,0.1602,-38.11,11.524,2.5,0.4736,100574.37
0.5469,-0.0142,0.0464,-65.305,2.683,-11.22,0.549,100575.02
0.7129,-0.0254,-0.082,-77.256,31.28,-18.902,0.718,100575.49
0.8843,-0.0137,-0.0542,-54.451,75.976,-12.317,0.886,100575.99
1.1782,0.0835,-0.1484,-17.866,36.89,4.634,1.1905,100574.62
1.3125,0.0947,-0.1802,8.049,22.012,26.341,1.3282,100575.58
1.3125,0.0503,0.0103,36.951,16.098,28.232,1.3135,100575.05
1.4629,0.1919,0.0718,52.378,-8.963,15.427,1.4772,100575.27
1.29,0.1704,0.3301,49.024,5.061,9.268,1.3425,100576.06
1.1001,0.2266,0.4927,67.073,-18.293,7.5,1.2265,100575.7
0.894,0.1196,0.272,46.037,-30.976,-2.439,0.9421,100576.05
0.7319,0.0049,0.1494,37.073,-27.378,-9.756,0.747,100576.4
0.6362,-0.0239,0.0342,35.793,-16.098,-10.244,0.6376,100575.95
0.606,-0.0039,-0.083,36.159,-2.622,-11.159,0.6116,100575.95
0.6655,-0.0098,-0.0283,38.841,18.11,-13.963,0.6662,100575.97
0.7993,0.0957,-0.0513,43.232,19.939,-14.817,0.8067,100575.11
1.1206,0.2373,-0.1934,27.927,5.244,-2.866,1.1617,100576.2
0.8701,0.0254,-0.1968,-0.488,23.841,31.341,0.8925,100575.9
1.1665,0.002,-0.0127,3.963,-24.268,-0.305,1.1666,100575.2
1.6587,0.1104,0.2314,7.378,-58.78,-10.976,1.6784,100575.52
1.4507,-0.042,0.4565,-17.378,8.78,29.207,1.5214,100575.89
1.1196,-0.2705,0.7202,-38.476,38.354,28.049,1.3585,100574.45
0.9629,-0.1509,0.3105,-33.415,6.951,20.122,1.0229,100574.47
0.8389,-0.0601,0.1216,-26.037,2.5,8.354,0.8498,100574.62
0.7178,-0.1011,0.2632,-36.524,18.598,-11.89,0.7712,100575.2
0.7339,-0.0327,0.0986,-61.89,15.549,-21.22,0.7412,100574.16
0.7954,-0.0073,-0.0825,-76.22,21.037,-23.293,0.7997,100573.74
0.7759,-0.0015,0.0928,-64.756,18.72,-20.366,0.7814,100573.42
0.8252,0.1226,-0.0698,-51.585,8.78,-18.232,0.8372,100574.52
1.0098,0.0645,-0.1538,-40.61,22.561,-13.963,1.0234,100575.59
1.1528,0.0122,-0.1265,2.012,6.463,-9.329,1.1598,100575.8
1.2695,0.1934,-0.0825,54.817,-27.256,-15.732,1.2868,100575.6
1.4907,0.2812,0.1089,51.159,-17.866,-12.317,1.5209,100576.45
1.521,0.0127,0.4414,39.268,-0.61,3.841,1.5838,100575.83
1.248,-0.0366,0.6455,56.768,12.988,20.854,1.4056,100575.62
1.0571,0.1885,0.4473,52.927,-36.707,18.049,1.1632,100574.99
0.8706,0.1724,0.1987,31.098,-47.927,4.329,0.9095,100575.13
0.6172,0.0083,0.144,22.805,-14.146,-5.0,0.6338,100575.73
0.5396,-0.0083,0.0024,16.646,6.89,-7.927,0.5396,100575.07
0.582,-0.0127,-0.0034,14.451,15.122,-6.098,0.5822,100574.8
0.5796,-0.0449,-0.1167,19.634,7.378,-10.793,0.5929,100574.85
0.6782,0.0503,-0.1768,34.939,2.866,-21.159,0.7027,100574.73
0.9546,0.1714,-0.1099,37.378,-23.78,-16.89,0.9761,100574.19
1.1206,0.1353,-0.2402,10.305,-26.951,4.268,1.154,100573.16
1.2363,-0.02,-0.0659,5.244,-24.268,17.012,1.2382,100574.09
1.4487,0.0273,0.0664,-3.171,-23.293,20.0,1.4505,100574.31
1.4556,-0.104,0.1831,-30.915,-6.707,18.354,1.4707,100574.73
1.394,-0.0933,0.4604,-37.927,6.037,15.854,1.4711,100575.66
1.3164,-0.1304,0.4712,-77.683,24.573,6.951,1.4043,100575.74
1.0391,-0.189,0.2085,-95.427,17.744,4.939,1.0765,100574.8
0.8193,-0.1572,0.1479,-83.476,28.049,0.976,0.8473,100574.22
0.6558,-0.0981,0.105,-81.951,48.476,-8.841,0.6713,100574.65
0.6426,-0.0435,0.0537,-86.951,53.476,-13.963,0.6463,100574.71
0.6138,-0.0308,0.0557,-86.768,59.756,-17.927,0.6171,100574.88
0.7104,0.04,-0.0015,-79.451,23.963,-24.085,0.7116,100574.5
0.834,0.0464,-0.0376,-73.78,19.817,-18.232,0.8361,100573.87
0.9766,-0.0522,-0.0874,-52.256,27.805,-14.573,0.9819,100573.66
1.0522,0.0161,0.0537,-1.524,-7.5,-19.939,1.0537,100573.52
1.2705,0.1221,0.2432,3.598,-26.037,-22.134,1.2993,100573.77
1.5527,0.0386,0.1792,-21.28,-16.159,-28.659,1.5635,100573.7
1.5181,-0.0952,0.4238,-30.671,2.256,-52.561,1.579,100573.78
1.2168,-0.1479,0.8062,-33.659,8.902,-56.463,1.4671,100574.47
1.0894,0.0278,0.5376,-63.11,-4.878,-42.561,1.2151,100574.35
1.0928,0.022,0.5166,-88.598,-17.134,-47.073,1.2089,100573.41
0.9116,-0.0908,0.4683,-91.646,-45.427,-58.171,1.0289,100573.18
0.6899,-0.0229,0.0503,-82.988,-19.512,-46.402,0.6922,100573.37
0.5952,0.0488,0.0811,-75.549,-2.622,-33.171,0.6027,100573.27
0.6421,0.0757,0.2559,-62.073,-41.341,-24.939,0.6953,100572.59
0.6802,0.1699,0.1963,-73.78,-32.134,-17.378,0.728,100573.16
0.791,0.1235,0.1836,-118.354,-38.902,-21.463,0.8214,100572.63
0.8779,0.0557,0.0654,-136.829,-61.707,-14.573,0.8821,100572.23
0.9312,0.0859,-0.0132,-109.085,-54.146,-2.012,0.9352,100572.52
0.896,0.0781,0.1675,-98.293,-31.22,-0.793,0.9149,100572.74
1.0044,0.1108,0.1919,-113.415,-27.134,-2.744,1.0286,100573.52
1.2251,0.001,0.3828,-130.244,-32.317,1.89,1.2835,100572.51
1.2695,-0.0552,0.5469,-131.646,-23.232,4.451,1.3834,100572.36
1.2656,-0.0176,0.6206,-143.659,6.098,-3.78,1.4097,100573.11
1.2788,-0.1406,0.6689,-179.512,-2.5,-5.061,1.45,100573.08
1.0371,-0.272,0.2363,-188.171,-20.244,7.073,1.0979,100573.19
0.7075,-0.2061,0.0405,-132.439,25.488,1.707,0.738,100573.01
0.6089,0.0239,0.0059,-85.061,37.256,-13.841,0.6094,100573.38
0.7295,0.1255,-0.0249,-75.427,37.622,-18.537,0.7406,100573.44
0.8062,0.124,0.1211,-59.573,44.024,-21.22,0.8246,100574.54
0.8682,0.1245,0.2495,-48.841,35.427,-23.537,0.9118,100574.8
0.9761,0.1821,0.1802,-50.488,22.622,-30.915,1.0091,100574.74
1.2246,0.1982,0.1938,-43.72,5.61,-35.671,1.2556,100574.68
1.5146,0.0693,0.3643,-38.963,-19.817,-36.585,1.5594,100574.88
1.5708,-0.0122,0.3535,-19.207,-26.037,-38.476,1.6101,100574.52
1.4502,-0.0806,0.5215,-16.524,17.378,-31.768,1.5432,100575.22
1.2007,-0.0757,0.6401,-43.841,18.902,-9.756,1.3628,100575.51
0.9351,0.0034,0.2598,-71.402,-23.841,-22.134,0.9705,100574.59
0.7803,-0.0952,0.3896,-66.707,-16.098,-45.915,0.8773,100575.63
0.7749,-0.0679,0.3335,-60.549,-7.5,-56.463,0.8463,100576.52
0.6846,0.0186,0.3965,-71.402,3.78,-47.744,0.7913,100575.68
0.6548,-0.0093,0.1318,-105.61,-18.841,-48.232,0.668,100575.54
0.3716,-0.0312,-0.2173,-99.512,-40.122,-40.915,0.4316,100575.08
0.4902,-0.0264,-0.0054,-60.732,-58.171,-21.159,0.491,100574.98
1.0518,0.1133,0.1909,-29.573,-83.72,-0.854,1.0749,100575.16
1.3813,0.2002,0.3726,-37.317,-75.061,12.073,1.4446,100575.3
1.605,0.0093,0.626,-93.537,-52.439,39.573,1.7228,100576.14
1.4097,-0.0894,0.563,-83.171,-23.171,47.988,1.5206,100576.36
1.3096,-0.001,0.6421,-61.037,6.524,25.183,1.4585,100576.8
1.3345,-0.0938,0.7119,-84.756,21.89,12.5,1.5154,100576.02
0.8926,-0.1357,0.2754,-70.732,-3.902,6.22,0.9439,100574.92
0.6289,-0.0244,0.2817,-58.902,-12.378,0.244,0.6896,100574.71
0.4209,-0.0142,0.1782,-56.22,-6.463,-5.244,0.4573,100574.92
0.4956,0.0493,0.0859,-39.085,23.72,-8.902,0.5054,100574.82
0.3838,-0.0205,0.1079,-27.256,32.805,2.073,0.3992,100575.27
0.6118,-0.0166,0.2427,5.549,42.866,18.537,0.6584,100575.94
1.1484,0.1396,0.1396,-7.927,37.927,4.39,1.1653,100576.09
1.4429,0.0093,-0.0776,-33.598,13.11,-24.756,1.445,100576.25
1.7075,-0.0732,0.1113,18.659,-30.61,-49.756,1.7127,100576.59
1.7124,0.168,0.2944,49.878,-36.585,-19.024,1.7456,100576.1
1.2769,-0.0396,0.4404,30.976,8.78,22.866,1.3513,100575.75
1.0776,-0.3281,0.6821,32.439,27.5,23.72,1.3169,100575.59
0.8838,-0.0552,0.688,53.841,-22.012,12.927,1.1214,100575.22
0.7129,0.0781,0.5215,27.439,-38.537,-30.305,0.8867,100574.57
0.5288,-0.0576,0.2969,5.183,5.183,-49.756,0.6092,100574.7
0.3862,0.0205,0.1519,16.951,45.183,-31.768,0.4155,100574.41
0.5869,0.0928,0.2012,16.22,32.683,-6.951,0.6273,100574.93
0.8311,0.062,-0.0742,-12.866,8.171,-4.146,0.8367,100574.45
1.0415,0.2646,-0.0723,-16.829,18.171,-12.012,1.077,100573.83
1.1641,0.3696,-0.0527,-42.134,17.866,-21.829,1.2225,100572.46
1.1938,0.1328,0.2417,-8.72,-53.049,19.024,1.2253,100572.78
1.2412,-0.0654,0.5464,17.622,-72.561,50.671,1.3577,100573.24
1.3379,-0.186,0.6143,-13.537,-60.122,23.354,1.4839,100573.07
1.3647,-0.0522,0.4683,-19.939,-70.0,11.829,1.4438,100573.56
1.1431,-0.0098,0.7222,-35.244,-20.427,15.732,1.3521,100573.38
1.0283,-0.0869,0.5215,-69.085,6.28,-11.037,1.1563,100574.49
0.8618,0.001,0.0581,-81.402,21.768,-13.354,0.8638,100574.21
0.5801,0.0649,0.2568,-83.354,57.683,-5.244,0.6377,100574.59
0.3105,0.2476,0.1753,-81.89,42.134,-7.744,0.4341,100575.45
0.4722,0.2041,-0.0449,-90.244,24.024,-19.634,0.5164,100575.09
0.7368,0.104,-0.2007,-58.659,13.354,-11.524,0.7707,100574.81
0.603,-0.0322,0.3037,11.951,30.915,14.39,0.676,100574.86
1.0864,-0.0576,0.2495,37.317,-3.293,14.512,1.1162,100575.73
1.646,-0.0088,0.4106,72.195,-28.049,44.085,1.6965,100576.85
1.6611,0.0938,0.7593,110.488,1.89,57.805,1.8288,100577.2
1.6152,0.1602,1.0034,81.829,-54.939,38.049,1.9083,100576.89
1.3687,-0.1641,0.77,-0.61,-31.402,57.927,1.5789,100576.9
0.8511,-0.1533,0.3267,27.256,32.805,60.61,0.9244,100576.41
0.5356,0.0044,0.0732,76.22,-23.049,14.268,0.5406,100575.79
0.3677,-0.1406,0.1455,123.72,-21.463,13.72,0.4197,100575.72
0.1533,-0.1665,0.02,122.561,34.207,20.427,0.2272,100575.91
0.521,-0.208,-0.0327,91.707,-25.915,-25.0,0.5619,100575.7
1.0151,-0.0537,0.1338,43.78,-114.207,-77.927,1.0253,100575.69
0.9028,-0.0352,-0.0273,-12.744,24.817,-41.829,0.9039,100575.92
1.0127,0.0649,-0.1875,-21.951,-9.573,-13.171,1.032,100576.22
1.2754,-0.0747,0.4873,-36.037,-27.439,16.159,1.3674,100576.83
1.4995,-0.0439,0.561,-69.939,-24.451,-7.012,1.6016,100575.95
1.6406,0.2456,0.3613,-71.585,-81.646,-45.732,1.6978,100576.27
1.2739,-0.1934,1.1069,-99.573,-22.744,-52.317,1.6987,100576.27
1.2725,-0.0459,0.2573,-104.024,-4.268,-27.073,1.299,100576.24
0.9639,0.0469,0.1396,-47.439,11.098,15.793,0.9751,100576.49
0.4531,0.0205,0.124,-29.024,12.5,18.72,0.4702,100576.55
0.3945,0.0596,-0.0371,-47.866,74.817,17.683,0.4007,100576.34
0.5532,0.1353,0.0439,-34.878,53.049,6.89,0.5712,100575.7
0.6191,0.127,0.0493,-18.11,17.744,15.61,0.6339,100575.85
0.8833,0.002,-0.0894,-26.707,42.012,18.293,0.8878,100575.83
1.1069,-0.1382,0.0288,-8.354,13.537,-7.927,1.1159,100574.6
1.3354,0.021,0.0732,28.659,-22.073,-11.646,1.3376,100574.54
1.459,0.2334,0.1309,31.28,-9.39,4.085,1.4833,100575.45
1.6729,0.1152,0.4424,18.72,-7.622,-8.72,1.7342,100575.07
1.4111,-0.1396,0.7124,42.805,2.195,-10.061,1.5869,100574.9
1.126,0.0659,0.8931,73.354,22.805,2.256,1.4387,100575.04
0.916,0.3306,0.5947,56.341,-16.524,-3.11,1.1411,100574.52
0.6807,0.1108,0.1948,38.659,-10.976,3.293,0.7166,100574.66
0.769,-0.0186,0.1562,56.341,17.012,26.951,0.785,100574.78
0.6118,0.022,0.0703,34.573,-7.805,15.122,0.6162,100575.2
0.3921,-0.104,0.1924,-4.634,-41.646,-13.476,0.449,100575.17
0.4766,-0.0024,0.0742,-6.159,-45.183,-24.512,0.4823,100576.38
0.627,0.1304,-0.0605,-2.744,-10.061,-36.951,0.6432,100575.82
1.0664,0.208,0.1284,-3.902,-45.793,-47.134,1.0941,100575.63
0.979,0.0708,-0.0659,-56.768,-40.549,-6.463,0.9838,100576.84
1.4473,-0.0503,-0.248,-49.207,-17.195,6.585,1.4692,100577.25
1.9336,0.0034,0.4194,1.22,4.329,13.11,1.9786,100577.2
1.6445,-0.1377,0.876,-30.61,18.72,20.183,1.8684,100576.3
1.1343,-0.2104,0.5508,-74.146,-22.927,18.72,1.2784,100575.41
0.6758,-0.1895,0.3682,-90.0,-41.037,12.195,0.7925,100574.84
0.5757,-0.127,0.2534,-85.976,-24.878,-4.207,0.6417,100574.77
0.688,-0.0356,-0.0283,-78.354,37.744,3.963,0.6895,100575.59
0.667,-0.0205,-0.0444,-67.622,61.951,13.72,0.6688,100574.6
0.5361,0.0024,0.1147,-56.951,17.134,-1.585,0.5483,100573.37
0.7563,0.1016,0.0767,-67.012,14.939,-19.146,0.767,100574.43
1.1069,0.0151,-0.1318,-66.829,42.622,-12.744,1.1149,100574.61
1.2026,-0.0659,-0.0757,-10.61,13.72,-9.024,1.2068,100575.59
1.3745,0.084,0.0513,7.012,-3.659,-10.915,1.378,100576.22
1.6079,0.0972,0.0864,-27.988,3.049,-15.732,1.6132,100576.32
1.5542,-0.269,0.4478,-48.293,20.61,-20.732,1.6396,100575.69
1.2026,-0.2349,0.7236,-5.61,21.646,-17.622,1.4231,100575.83
0.8955,0.0093,0.6626,0.671,-38.902,-17.439,1.114,100575.59
0.9023,0.1323,0.4023,-38.902,-59.573,-42.866,0.9968,100574.91
0.7856,-0.0439,0.3438,-57.134,-38.232,-49.573,0.8587,100573.79
0.7861,-0.0522,0.1372,-50.854,-2.439,-36.402,0.7997,100573.22
0.564,-0.0234,0.1558,-50.061,25.244,-20.0,0.5855,100573.51
0.5054,-0.0156,0.2041,-54.756,-9.512,-22.317,0.5453,100572.75
0.5757,0.0513,-0.002,-67.378,-4.329,-19.207,0.578,100572.93
0.7046,0.1367,0.1646,-70.976,5.183,-14.634,0.7364,100573.29
0.8486,0.123,0.2866,-90.854,-25.305,-14.268,0.9041,100572.82
1.0591,0.002,0.1323,-114.329,-43.598,-19.756,1.0673,100572.47
1.2324,-0.2334,0.3164,-93.72,-47.988,-24.512,1.2936,100572.85
1.751,-0.0522,0.9102,-74.451,-22.134,-14.451,1.9741,100572.75
2.001,-0.2012,1.1362,-178.415,51.829,-17.378,2.3098,100573.41
1.0986,-0.459,0.2554,-237.561,16.22,-17.378,1.2177,100572.93
0.373,-0.1982,-0.0327,-137.073,-31.159,-24.329,0.4237,100572.56
0.4634,0.146,0.2632,-69.939,2.561,-35.732,0.5525,100573.13
0.6055,0.123,0.271,-106.28,44.817,-24.695,0.6747,100573.96
0.5723,0.0381,0.1602,-135.671,55.305,-20.366,0.5955,100573.95
0.7061,-0.0317,0.1812,-132.927,20.183,-40.549,0.7296,100574.44
0.9976,-0.0449,0.1865,-117.317,5.366,-55.61,1.0158,100573.59
1.3774,0.0889,0.0483,-86.098,26.646,-52.866,1.3812,100573.55
1.5718,0.1533,0.1724,-51.646,19.817,-39.695,1.5886,100574.17
1.3398,-0.0005,0.6777,-50.183,-13.963,-35.915,1.5015,100574.37
1.2529,-0.1533,0.6567,-84.268,-28.659,-62.378,1.4229,100574.55
1.0508,-0.0757,0.646,-75.976,-2.744,-70.671,1.2358,100574.8
0.8999,0.0674,0.6846,-61.463,-59.634,-63.354,1.1327,100574.75
0.707,0.1182,0.4121,-55.244,-58.049,-47.073,0.8269,100574.6
0.7842,0.002,0.4741,-56.28,13.598,-19.024,0.9164,100574.62
1.2515,-0.0903,0.1914,-87.805,-0.854,-30.549,1.2692,100575.7
0.9229,-0.1372,0.0347,-141.829,-66.22,-66.585,0.9336,100574.71
0.353,-0.1255,0.1177,-141.037,-79.451,-76.037,0.3927,100574.58
0.5059,0.1304,0.1953,-103.232,-45.427,-64.817,0.5577,100573.61
0.8457,0.3022,0.1616,-93.963,-84.695,-30.61,0.9125,100573.37
0.9971,0.25,0.1865,-68.659,-127.561,2.012,1.0447,100574.78
0.9395,0.1792,0.1001,-56.829,-41.829,35.976,0.9616,100574.98
1.4438,0.1133,-0.0547,-56.829,-20.366,24.085,1.4493,100574.77
1.6821,0.0781,0.1162,-51.951,6.098,12.073,1.6879,100573.48
1.4282,-0.0767,0.5996,-67.988,12.683,37.927,1.5509,100573.62
1.1743,-0.1851,0.9478,-75.671,43.354,56.646,1.5204,100573.98
0.9409,-0.1392,0.5874,-85.244,1.524,39.268,1.1179,100574.37
0.6431,-0.0483,0.1753,-73.659,-21.341,21.28,0.6683,100573.42
0.4614,-0.0688,-0.0103,-44.512,8.293,0.854,0.4666,100573.69
0.6392,0.0244,0.0132,-3.659,7.561,-6.341,0.6398,100573.75
0.7148,0.0615,0.0879,1.951,-6.463,3.415,0.7228,100574.28
0.6851,-0.0537,0.1216,-22.927,-16.951,5.061,0.6978,100575.03
0.958,-0.0674,-0.1265,-16.89,-44.451,7.439,0.9687,100575.49
1.2324,-0.1875,-0.1626,-13.11,-36.402,5.305,1.2572,100575.21
1.2676,-0.2251,-0.1133,9.878,-9.634,-9.024,1.2924,100576.21
1.5103,0.0454,0.2163,21.768,-40.061,-9.268,1.5263,100575.13
1.3408,0.0132,0.2148,-31.707,-22.744,-0.549,1.358,100575.41
1.1831,-0.1084,0.4307,-17.988,8.293,-19.573,1.2637,100574.26
1.2856,0.147,0.8379,30.305,17.439,-9.573,1.5416,100573.9
1.2441,0.1865,0.3774,-17.317,-12.866,-25.671,1.3134,100574.49
1.0044,-0.0264,0.0122,-55.61,-7.195,-49.39,1.0048,100574.68
0.5498,0.0142,0.0474,21.159,39.512,-25.549,0.552,100574.7
0.5254,0.0884,0.2231,78.415,24.939,1.646,0.5776,100574.83
0.6611,0.1484,0.0088,20.183,-13.232,-8.232,0.6776,100574.41
0.7573,0.1401,-0.1216,-21.89,-80.671,-27.927,0.7797,100573.24
0.8296,0.2036,-0.2617,-22.866,-77.927,-31.829,0.8934,100572.98
0.8223,0.2627,-0.2812,-0.061,-69.939,5.61,0.9079,100572.91
0.915,0.1362,-0.0571,14.634,-56.22,39.695,0.9269,100572.83
1.4243,-0.0771,0.0698,3.598,-37.439,35.793,1.4281,100573.04
1.3975,-0.0439,0.1377,-8.415,-18.78,15.61,1.4049,100571.95
1.3208,-0.0264,0.3872,-7.012,0.427,-2.561,1.3766,100571.86
1.2065,-0.1895,0.3794,-30.366,45.854,3.293,1.2789,100572.52
1.0718,-0.1484,0.1621,-8.598,42.805,14.146,1.0941,100572.54
0.8633,-0.0244,0.2041,-0.671,45.549,24.939,0.8874,100573.16
0.4966,-0.0854,0.1074,-26.402,60.122,30.0,0.5152,100573.74
0.6978,-0.0068,-0.0034,-11.89,42.683,19.573,0.6978,100573.46
0.585,-0.062,0.2046,-28.659,57.683,12.012,0.6228,100573.61
1.0327,-0.0659,-0.1836,-48.537,46.402,-6.524,1.051,100574.46
1.291,-0.1479,-0.416,-5.122,31.28,-11.585,1.3644,100575.73
1.6636,0.0503,0.1387,93.72,25.549,-5.976,1.6701,100576.15
1.7183,0.3169,0.3911,75.793,18.902,-1.951,1.7905,100576.1
1.4443,-0.084,0.6094,0.915,9.268,-19.268,1.5699,100575.96
1.2446,-0.2627,0.7178,20.671,-9.085,0.915,1.4606,100575.36
1.1348,0.0938,0.7749,33.902,-49.634,12.988,1.3773,100574.55
0.6973,0.1841,0.085,-4.573,-53.171,-5.854,0.7261,100574.04
0.7051,-0.0635,0.147,36.768,-32.988,-3.78,0.723,100574.31
0.5366,-0.0469,0.3076,63.049,-14.207,12.988,0.6203,100574.39
0.4287,-0.0186,0.1411,-0.366,-19.451,-1.707,0.4517,100575.55
0.5752,-0.103,0.1143,-62.439,-17.866,-13.72,0.5954,100575.43
0.5083,-0.0288,-0.269,-88.11,8.537,-19.878,0.5758,100575.23
0.9185,0.0469,-0.0439,-65.183,-1.585,-34.451,0.9207,100574.93
1.1968,0.2007,-0.0957,-61.646,-17.317,-16.646,1.2173,100575.57
1.2061,0.0015,0.2729,-31.22,-2.866,17.744,1.2366,100574.7
1.8174,0.2451,0.2539,-10.549,-29.512,-15.793,1.8513,100574.5
1.9326,0.4214,0.0781,-22.988,8.049,-0.488,1.9796,100572.92
1.4346,-0.123,0.499,5.183,2.622,31.037,1.5239,100572.45
0.9995,-0.2925,0.4175,18.78,-67.927,27.988,1.122,100572.98
0.6597,-0.2988,0.2568,-6.951,-65.488,2.866,0.7684,100573.73
0.3833,-0.229,0.0376,-45.793,-24.878,-24.573,0.4481,100573.96
0.1851,-0.1338,-0.019,-44.329,-2.561,-26.951,0.2291,100572.77
0.1401,-0.1846,0.0337,-19.695,31.098,-10.366,0.2342,100572.75
0.6562,-0.0664,0.1235,-8.841,36.829,-6.951,0.6711,100572.98
1.04,0.1494,-0.0669,-30.244,39.573,9.146,1.0528,100573.77
1.106,0.2046,-0.2661,-42.134,44.329,24.329,1.1558,100574.72
1.2852,0.2812,-0.0679,-22.744,11.037,9.207,1.3173,100575.43
1.6904,0.2417,0.0229,11.098,-1.89,-0.671,1.7078,100575.84
1.7246,0.311,0.2959,54.878,49.634,19.817,1.7772,100575.9
1.2964,-0.1738,0.7251,72.012,68.232,60.488,1.4955,100574.84
1.165,-0.2539,1.0049,110.305,30.549,54.207,1.5594,100574.8
0.9834,0.1772,0.6479,110.0,-15.549,15.183,1.1909,100574.76
0.8506,0.0444,0.2803,81.037,19.756,-1.707,0.8967,100574.84
0.7583,-0.1606,-0.168,22.561,31.402,-38.415,0.7931,100574.52
0.5278,-0.231,0.0981,-12.5,25.061,-75.244,0.5844,100574.15
0.3384,-0.1582,0.2285,9.39,15.366,-62.317,0.4379,100574.01
0.293,0.0161,-0.0444,14.207,-14.085,-41.402,0.2968,100574.01
0.5503,0.1821,0.061,-1.341,-34.207,-36.524,0.5829,100573.88
0.9331,0.2959,0.1294,-32.622,-65.671,-21.829,0.9874,100574.63
1.4683,0.2778,-0.0454,-48.963,-53.415,0.488,1.495,100574.94
1.7246,0.2778,-0.1084,-26.037,-25.366,16.646,1.7502,100575.04
1.6382,0.3721,0.0605,-2.195,-38.72,2.622,1.681,100575.32
1.3359,-0.0776,0.6245,-23.415,-80.61,-3.659,1.4767,100576.18
1.1987,-0.1514,0.5698,-22.805,-51.22,21.524,1.3359,100576.2
0.9248,-0.0776,0.3545,-8.598,-6.89,49.939,0.9935,100575.95
0.8496,-0.145,0.3213,7.439,-14.207,32.866,0.9198,100576.14
0.5957,0.0635,0.1152,11.098,29.756,-13.415,0.6101,100574.95
0.6948,0.0869,0.084,-8.902,28.659,-8.659,0.7053,100575.37
1.0518,-0.0005,-0.2246,-37.195,42.439,-7.622,1.0755,100575.67
1.1562,-0.1123,-0.1553,-11.707,10.122,-10.0,1.172,100575.9
1.3345,-0.0293,-0.0767,9.512,-21.585,-15.61,1.337,100577.19
1.3154,0.1123,-0.0327,-5.427,-22.805,-8.598,1.3206,100576.79
1.3574,-0.0874,0.2817,-24.817,-19.146,-0.183,1.3891,100577.13
1.3569,-0.4014,0.332,-3.415,-32.439,0.183,1.4535,100577.61
1.1963,0.0479,0.5869,38.963,-36.951,-9.512,1.3334,100577.48
1.1094,0.5244,0.4204,-16.89,-72.561,-19.329,1.2971,100576.44
0.8101,0.1108,0.2725,-73.232,-49.756,1.89,0.8618,100574.9
0.7764,-0.0337,0.1318,-50.366,-9.573,2.012,0.7882,100574.73
0.6846,0.0137,-0.0957,-55.305,7.866,-13.415,0.6914,100573.39
0.5713,-0.0771,0.1147,-69.207,-11.341,-18.049,0.5878,100573.25
0.6035,0.0317,-0.002,-83.598,-13.72,-18.598,0.6044,100572.65
0.728,0.1118,-0.0713,-84.878,-9.39,-22.256,0.74,100572.94
0.7749,0.1709,0.0142,-65.793,2.317,-1.707,0.7937,100573.16
0.9194,0.248,-0.0908,-57.195,3.232,15.0,0.9566,100574.43
1.1626,0.1846,-0.1353,-65.427,-10.732,9.451,1.1849,100574.51
1.3232,0.1704,-0.0508,-62.256,-5.366,-2.317,1.3351,100574.59
1.2534,-0.0674,0.2598,-58.72,-3.841,-6.159,1.2818,100573.91
1.3267,-0.1602,0.606,-47.073,0.976,-1.098,1.4673,100574.75
1.5156,-0.1357,0.5615,-63.11,28.72,5.854,1.622,100574.5
0.8462,-0.272,0.2344,-108.415,-0.854,5.0,0.9192,100575.41
0.8066,-0.0981,0.0986,-98.841,30.793,0.61,0.8186,100574.55
0.7642,0.1216,0.0449,-100.549,26.646,-9.939,0.7751,100574.27
0.6602,0.0869,0.1777,-107.378,3.476,-16.89,0.6892,100574.66
0.7026,0.0229,0.1641,-108.354,3.537,-22.805,0.7219,100575.72
0.8281,0.0312,-0.0098,-86.524,5.915,-26.89,0.8288,100575.74
0.9185,0.062,-0.0337,-55.0,1.951,-27.134,0.9212,100576.85
1.2119,0.1582,-0.1426,-45.305,-1.22,-39.634,1.2305,100577.2
1.4771,0.0464,-0.2095,-50.671,-9.39,-44.451,1.4926,100577.09
1.4634,-0.124,0.1353,-41.037,-14.146,-32.927,1.4748,100576.64
1.4756,-0.2188,0.3325,-39.39,8.659,-18.232,1.5283,100576.4
1.1899,-0.2612,0.5259,-50.549,-6.951,-19.512,1.3269,100576.01
0.8701,0.0259,0.3774,-76.89,-81.585,-35.915,0.9488,100576.3
0.876,0.0791,0.3613,-90.122,-91.585,-38.659,0.9509,100575.91
0.9102,0.1274,0.3862,-77.256,-74.756,-32.012,0.9969,100576.62
0.9409,0.2744,0.1265,-111.28,-74.329,-31.646,0.9882,100575.91
0.8735,0.1777,0.0269,-155.0,-70.732,-20.61,0.8918,100575.77
0.7891,0.0488,-0.0088,-150.244,-76.524,-9.817,0.7906,100575.4
0.6343,0.123,0.0454,-118.293,-75.915,5.549,0.6477,100574.88
0.7158,0.2495,-0.0752,-93.476,-56.037,28.476,0.7618,100575.34
0.8823,0.271,-0.0933,-74.024,-47.378,48.232,0.9277,100574.72
0.9082,0.3008,-0.1484,-79.756,-56.098,37.988,0.9682,100574.59
1.1079,0.2354,-0.3872,-94.39,-73.902,19.878,1.197,100574.24
1.0991,0.1094,-0.3047,-85.793,-61.707,22.5,1.1458,100574.01
1.2056,-0.043,-0.084,-69.756,-54.39,25.61,1.2093,100573.95
1.4873,-0.061,0.1187,-57.134,-45.976,26.159,1.4933,100573.37
1.2812,-0.1768,0.0835,-47.439,-3.902,23.78,1.2961,100572.98
0.8306,0.0259,0.3457,-23.598,-25.793,14.085,0.9,100573.17
0.7793,0.2183,0.437,-107.561,19.939,11.341,0.9197,100572.7
0.915,0.1636,-0.5098,-162.134,26.646,15.244,1.0601,100573.35
0.9199,0.1206,-0.5361,-83.415,28.171,21.585,1.0716,100573.95
1.0063,0.103,-0.3164,-29.512,24.329,21.159,1.0599,100574.61
0.937,-0.0005,-0.2495,-9.573,23.293,27.561,0.9697,100574.89
0.8901,-0.0161,-0.0391,5.0,8.11,18.72,0.8911,100575.45
1.02,-0.0142,-0.2363,-9.085,-5.732,6.829,1.0471,100576.24
1.0356,-0.0234,-0.2983,-2.439,-22.439,0.671,1.078,100576.34
1.1396,-0.0024,-0.1631,7.195,-40.61,-4.695,1.1513,100575.77
1.063,0.0156,-0.3462,-6.463,-45.61,-7.439,1.1181,100575.23
1.2788,0.0112,-0.1465,19.939,-30.549,-15.305,1.2872,100574.94
1.355,0.0845,0.3408,29.817,-33.537,-8.232,1.3997,100575.32
0.998,0.1616,-0.0361,-45.183,-31.585,11.22,1.0117,100574.88
0.9209,0.1123,-0.1445,-45.488,-7.195,15.793,0.9389,100574.77
0.7656,0.1348,0.0635,-25.061,-4.268,19.756,0.78,100574.68
0.5977,0.1001,-0.209,-53.72,-1.707,12.927,0.641,100575.12
0.7461,0.0786,-0.3516,-46.402,-2.134,-1.89,0.8285,100577.05
0.7788,0.0547,-0.436,-31.646,-4.695,-4.207,0.8942,100577.49
0.8442,0.1245,-0.4009,-28.476,-26.037,-6.341,0.9428,100576.48
0.7373,0.1831,-0.3296,-27.561,-51.524,9.451,0.8281,100576.24
0.7495,0.1636,-0.3862,-27.988,-20.976,22.988,0.8589,100575.91
1.1094,0.2173,-0.3281,-32.195,-9.268,16.829,1.1771,100576.49
1.3604,0.231,-0.624,-59.024,-27.195,15.61,1.5144,100577.71
1.0518,0.1152,-0.5254,-38.11,-50.671,17.012,1.1813,100577.5
1.3062,0.1445,-0.0229,-13.841,-35.915,-13.11,1.3143,100576.84
1.8286,0.0806,-0.1572,-33.232,-16.463,-27.134,1.8371,100576.84
0.9663,-0.0161,-0.0449,-20.793,14.146,38.659,0.9675,100575.88
0.4277,0.0264,0.1143,-21.524,20.427,38.841,0.4435,100575.78
0.9014,0.0391,-0.2168,-56.829,33.72,3.171,0.9279,100575.2
0.75,0.0142,-0.3999,-45.366,33.537,17.317,0.8501,100574.9
0.5771,0.0015,-0.2559,-12.439,24.085,18.354,0.6313,100575.02
0.6318,-0.0015,-0.1245,-8.11,31.22,7.5,0.644,100575.09
0.8247,0.0317,-0.2905,-24.451,19.268,-1.829,0.875,100576.18
1.1348,0.0259,-0.4062,-18.598,17.134,-2.134,1.2056,100577.24
1.1626,0.1016,-0.46,-7.317,6.524,2.561,1.2544,100578.12
1.1187,0.1323,-0.6309,-3.354,-2.5,-0.427,1.2911,100577.33
1.2197,0.147,-0.2993,37.256,-3.659,-6.098,1.2645,100577.31
1.123,0.1636,-0.1138,49.634,10.488,-1.159,1.1406,100577.7
1.1143,0.0435,0.062,54.512,20.0,0.732,1.1168,100577.63
1.2407,0.0649,0.1675,47.683,11.463,-14.451,1.2537,100576.59
0.9771,0.2998,-0.021,22.134,0.122,-14.939,1.0222,100575.7
0.7388,0.1392,0.0249,3.841,-6.829,-8.963,0.7522,100577.73
0.7451,0.0264,0.1602,-8.11,6.159,-16.524,0.7626,100577.12
0.8364,0.1572,-0.3203,-36.159,33.78,-6.037,0.9094,100577.17
0.5908,0.0747,-0.5034,-34.268,47.561,14.024,0.7798,100577.42
0.6792,0.082,-0.126,-6.646,27.683,5.549,0.6956,100577.27
0.6909,0.1484,-0.2129,-14.512,23.72,9.573,0.7381,100577.63
0.937,0.1934,-0.3286,-11.829,26.951,27.744,1.0116,100577.55
1.1543,0.189,-0.3867,7.561,24.085,37.561,1.2319,100577.09
1.4966,0.1299,-0.3394,26.463,4.512,27.683,1.5401,100577.74
1.6265,0.0669,0.0039,41.159,-7.744,11.463,1.6278,100577.49
1.436,0.1172,0.4131,24.756,-3.78,15.0,1.4989,100576.55
1.126,-0.0361,0.4482,-40.427,-10.671,3.354,1.2125,100576.35
1.0488,-0.0322,-0.0049,-58.232,-40.671,-14.756,1.0493,100577.27
0.8579,-0.0049,-0.1196,-33.902,18.293,11.037,0.8662,100577.48
0.3999,-0.106,0.0698,-16.22,39.146,28.293,0.4196,100576.9
0.6641,-0.04,-0.022,-28.902,36.89,12.378,0.6656,100578.08
0.7803,0.064,-0.3794,-27.683,58.537,34.573,0.87,100578.58
0.4937,-0.0605,-0.1177,2.256,8.415,53.841,0.5111,100578.23
0.6382,-0.2148,-0.1216,-6.524,-9.573,22.622,0.6843,100578.79
1.2437,-0.1699,-0.1729,-0.671,4.451,-12.683,1.2671,100578.77
1.5181,-0.0176,-0.2124,2.927,-1.829,-30.305,1.533,100579.22
1.6821,-0.043,-0.4326,3.963,-56.037,-33.78,1.7374,100580.54
1.4546,-0.1362,0.1392,61.585,-25.061,-18.72,1.4676,100580.8
1.2817,-0.0566,0.5732,72.256,-18.537,-26.89,1.4052,100579.76
1.0854,0.2979,0.1772,40.366,-80.549,-39.939,1.1394,100578.01
1.0518,0.3223,-0.1265,11.28,-41.098,-37.805,1.1073,100578.03
0.6797,0.0703,0.1143,29.451,33.049,-23.232,0.6928,100577.09
0.5942,0.0503,0.1006,44.939,45.671,-7.317,0.6048,100577.72
0.6885,0.123,-0.207,17.622,28.049,9.939,0.7294,100578.83
0.396,0.0083,-0.1309,-3.293,12.5,20.0,0.4171,100578.19
0.5391,0.0586,-0.0845,-13.78,27.256,8.78,0.5488,100578.54
0.8672,0.1699,-0.4009,-39.451,-2.622,4.573,0.9704,100579.06
1.2979,0.1792,-0.4434,-27.5,-22.622,12.744,1.3831,100578.83
1.4263,0.1001,-0.1709,-2.683,-8.293,16.768,1.44,100579.4
1.6299,0.1055,-0.1646,-1.159,-28.11,4.512,1.6416,100579.59
1.4224,0.0195,0.3101,20.793,-20.366,1.463,1.4559,100579.6
1.4004,0.0098,0.3594,6.707,-2.744,-5.671,1.4458,100579.12
1.1431,-0.0786,0.0786,-9.939,1.22,17.256,1.1485,100578.99
0.6841,-0.1318,0.1714,3.293,28.049,37.134,0.7174,100579.01
0.5327,-0.0845,0.1465,-4.268,34.695,11.22,0.5589,100578.16
0.5962,-0.0161,-0.0718,-22.012,22.256,-7.073,0.6007,100578.62
0.583,-0.0327,-0.1274,-26.585,21.159,-10.183,0.5977,100579.1
0.71,-0.0625,-0.0356,-15.976,19.207,-10.427,0.7136,100579.7
0.8726,-0.061,-0.1704,-12.073,25.915,-5.488,0.8911,100579.81
1.0952,-0.0669,-0.3179,-10.671,22.927,-0.183,1.1424,100579.02
1.2031,-0.0454,-0.1431,23.72,9.939,6.463,1.2125,100579.27
1.5723,0.0269,-0.0176,34.207,-13.841,-13.72,1.5726,100578.95
1.582,0.1118,0.0239,33.476,-25.0,-12.439,1.5862,100578.87
1.2905,0.0122,0.3237,50.854,-7.439,8.659,1.3306,100578.95
1.1895,0.0601,0.4219,57.378,0.305,11.28,1.2635,100579.24
1.0459,0.2114,0.106,16.768,-23.72,-11.159,1.0723,100577.49
0.7627,0.0156,0.0742,-21.463,-19.085,-15.427,0.7665,100577.52
0.563,-0.0508,0.0728,-13.354,-0.61,-1.22,0.5699,100578.15
0.5225,0.04,0.0259,-11.098,7.805,8.293,0.5246,100578.77
0.4487,-0.0264,-0.0566,-32.622,26.159,9.756,0.4531,100579.08
0.8462,0.0879,-0.1978,-4.146,5.976,-22.317,0.8734,100578.81
1.127,0.0503,-0.1216,-22.195,13.963,-2.805,1.1346,100579.0
1.1851,0.0312,-0.2129,-18.415,8.963,8.841,1.2044,100579.38
1.4961,0.0298,0.0107,27.256,-20.488,6.768,1.4964,100579.66
1.7842,0.1929,0.0688,57.927,-33.476,0.427,1.7959,100579.77
1.6992,0.0483,0.5054,16.159,16.22,10.61,1.7734,100579.12
1.4023,-0.1562,0.4067,-20.732,-18.293,11.28,1.4685,100578.49
0.9355,-0.2427,0.1265,-22.195,-28.11,31.463,0.9747,100577.89
0.6929,-0.2427,0.2505,-7.927,-13.78,17.866,0.7757,100577.82
0.5806,-0.1968,0.1382,-25.915,7.744,-12.195,0.6284,100576.76
0.5391,-0.1289,-0.0225,-37.073,30.915,-23.78,0.5547,100577.37
0.5415,-0.1304,-0.0332,-33.11,33.841,-25.976,0.558,100577.81
0.5571,-0.1377,0.0039,-23.78,44.573,-22.012,0.5739,100577.39
0.752,-0.1274,-0.1362,-19.695,49.695,-19.146,0.7747,100578.3
1.084,-0.1094,-0.2925,-7.378,23.78,-20.305,1.1281,100579.22
1.3867,-0.1406,-0.1792,-4.878,2.073,-16.037,1.4053,100579.41
1.4902,-0.1157,-0.0991,-28.232,-11.402,-21.098,1.498,100579.57
1.4062,-0.1582,0.0957,-50.793,-15.061,-23.171,1.4184,100580.07
1.4087,-0.1519,0.4443,-64.817,-21.402,-25.976,1.4849,100579.1
1.3062,-0.1636,0.6079,-108.902,-15.366,-19.329,1.4499,100578.25
1.1855,0.0776,0.332,-122.927,-51.89,-13.598,1.2336,100578.87
1.1045,-0.0107,0.498,-152.073,-38.72,-32.683,1.2116,100579.56
0.9502,-0.1543,0.4326,-170.305,-1.402,-36.829,1.0554,100579.36
0.748,-0.0474,0.3154,-149.817,22.439,-20.732,0.8132,100579.6
0.6045,0.2104,0.0977,-125.915,-18.11,-48.659,0.6475,100579.17
0.6865,0.1982,-0.0688,-112.927,-5.061,-37.561,0.7179,100577.62
0.6826,0.1621,-0.0034,-122.866,3.902,-20.915,0.7016,100579.25
0.6597,0.0522,0.0122,-152.195,-5.671,-9.024,0.6618,100579.74
0.7974,0.0322,0.0454,-147.866,-12.073,3.232,0.7993,100579.48
0.9224,0.0137,0.0117,-136.22,-22.256,-5.488,0.9225,100578.91
1.1377,0.0356,0.0449,-127.134,-12.256,-1.28,1.1391,100578.58
1.2949,-0.02,0.1953,-133.354,-4.512,0.244,1.3097,100578.0
1.3662,-0.0791,0.2183,-100.671,-33.476,-8.78,1.3858,100577.78
1.3916,-0.0693,0.5288,-47.683,-31.951,1.524,1.4903,100577.73
1.332,-0.1831,0.8032,-69.573,1.951,19.146,1.5662,100577.94
1.3789,-0.1387,0.4243,-92.866,-10.366,22.195,1.4494,100577.72
0.8867,-0.147,0.1113,-107.439,-17.073,15.488,0.9057,100577.45
0.54,-0.1396,0.2417,-102.5,1.829,-11.402,0.6079,100578.32
0.5796,-0.0068,0.0889,-97.744,2.805,-35.244,0.5864,100577.64
0.7065,0.0815,-0.1509,-92.622,7.927,-33.598,0.7271,100577.74
0.7529,0.0518,0.0073,-59.817,15.122,-21.098,0.7547,100578.17
0.8301,0.0015,0.0234,-33.659,28.415,-14.329,0.8304,100578.14
1.1138,0.0679,0.0996,-10.305,31.585,-13.598,1.1203,100578.71
1.4316,0.1187,0.1396,-23.72,16.159,-21.463,1.4433,100579.02
1.5088,0.1064,0.1021,-20.549,12.439,-33.415,1.516,100578.3
1.4761,-0.0269,0.5576,-13.476,-4.878,-47.561,1.5781,100577.49
1.5005,-0.2505,0.3911,-52.561,2.988,-45.793,1.5707,100577.61
1.1978,-0.1514,0.1597,-42.195,-5.305,-27.378,1.2178,100577.71
0.9302,0.0234,0.3032,-15.976,-44.024,-20.183,0.9786,100578.16
0.7051,-0.0498,0.4492,-27.805,-38.72,-7.134,0.8375,100578.11
0.6519,-0.022,0.3398,-52.622,-22.927,3.659,0.7355,100578.22
0.6377,-0.0024,0.2202,-76.402,-12.805,-0.854,0.6747,100577.8
0.6016,0.0537,0.1909,-94.329,-11.646,-15.671,0.6334,100578.34
0.5386,0.1035,0.0889,-107.073,-9.329,-29.085,0.5556,100577.62
0.6113,0.1763,0.0674,-107.805,8.902,-28.78,0.6398,100577.09
0.7456,0.2285,0.1709,-88.902,16.098,-23.049,0.7983,100577.2
1.1235,0.1953,0.064,-60.427,-11.098,-24.817,1.1422,100578.13
1.5742,0.2344,0.2168,-44.146,-7.683,-12.5,1.6063,100579.48
1.709,0.2637,0.1074,-64.024,-36.585,-12.927,1.7325,100579.72
1.4727,0.0151,0.3428,-62.317,-101.28,-5.0,1.5121,100579.29
1.2461,-0.1533,0.7017,-52.256,-54.024,27.256,1.4383,100577.97
1.189,-0.2041,0.2847,-41.707,-35.0,31.402,1.2395,100578.33
1.0112,-0.0869,0.3438,-5.671,-61.646,45.122,1.0716,100578.34
0.5791,-0.0186,0.5068,-23.11,-16.098,49.512,0.7698,100578.5
0.4131,-0.0684,0.2041,-75.305,-14.268,18.598,0.4658,100578.59
0.5176,-0.1045,-0.0444,-87.378,-0.854,-4.451,0.5299,100578.82
0.6177,-0.0806,0.0483,-63.293,19.756,-15.732,0.6248,100578.35
0.7837,-0.0703,0.0938,-49.39,20.793,-11.037,0.7924,100578.13
1.0195,0.0088,-0.1113,-40.976,32.927,1.89,1.0256,100578.83
1.2593,-0.0112,-0.1328,-36.951,10.366,3.78,1.2663,100579.23
1.4536,0.0059,-0.1733,-27.012,-22.073,2.5,1.4639,100580.88
1.4824,-0.0444,-0.0967,-30.244,-19.207,-14.024,1.4862,100580.5
1.561,-0.0737,0.2036,-13.963,-32.927,-16.098,1.576,100579.37
1.2886,-0.0283,0.1177,19.329,-7.317,1.89,1.2942,100579.36
1.0942,0.0332,0.3599,48.78,10.732,19.268,1.1524,100578.26
0.9097,0.085,0.3296,33.598,-12.378,8.902,0.9713,100579.3
0.7437,0.0093,0.2397,13.902,-26.098,-9.146,0.7814,100578.7
0.6128,0.0063,0.1753,12.5,0.793,-7.012,0.6374,100578.1
0.5161,0.0698,0.1089,0.183,17.744,-6.402,0.5321,100578.16
0.5996,0.0737,0.1221,-22.012,0.427,-12.622,0.6163,100578.3
0.6445,-0.0039,-0.0215,-37.744,-8.476,-24.329,0.6449,100578.55
0.9082,0.0566,-0.2134,-21.829,-3.598,-25.793,0.9347,100578.84
1.2319,0.1899,-0.1865,-11.28,-4.39,0.915,1.2604,100577.83
1.084,0.0361,-0.2588,-40.61,27.378,30.183,1.115,100577.2
1.1475,-0.0239,0.0562,-18.841,-10.427,17.317,1.1491,100576.85
1.71,0.0898,0.2632,-23.415,-47.134,-8.537,1.7324,100577.33
1.5513,0.0303,0.4473,-25.732,5.366,9.512,1.6147,100577.82
1.4292,-0.1206,0.5283,-15.366,3.659,18.537,1.5285,100577.57
1.1001,-0.1333,0.1211,-7.988,-31.524,18.598,1.1147,100577.48
0.6445,-0.0947,0.1924,-5.915,-27.927,18.659,0.6793,100578.3
0.3481,-0.0605,0.1885,-37.073,-14.573,-1.037,0.4005,100577.9
0.2876,-0.0645,0.0908,-64.268,8.232,-13.232,0.3084,100578.09
0.4907,-0.0884,-0.0244,-60.305,30.244,-15.915,0.4992,100577.62
0.8857,-0.0137,-0.0562,-29.024,18.78,-8.232,0.8876,100578.12
1.1489,0.043,-0.0659,-25.366,22.256,9.268,1.1516,100578.27
1.0864,-0.0547,-0.3564,-46.159,46.402,11.707,1.1447,100578.1
1.2334,-0.0942,-0.3345,6.463,16.037,-3.963,1.2814,100578.87
1.5747,0.0908,-0.0063,67.195,-4.451,-10.488,1.5773,100579.17
1.4434,0.1963,0.1436,70.671,19.146,3.354,1.4637,100579.66
1.2676,0.1382,0.5112,53.354,1.28,-1.402,1.3738,100579.05
1.2124,0.1626,0.502,36.951,-41.89,-4.756,1.3222,100578.95
1.2515,0.2686,0.1772,23.171,-41.159,-23.598,1.2922,100579.39
0.8252,-0.0078,0.3872,27.012,11.463,-16.768,0.9116,100579.67
0.4492,-0.1704,0.2524,40.854,34.634,1.951,0.5427,100578.19
0.5225,-0.1201,0.103,41.463,17.317,12.805,0.5459,100577.93
0.4907,-0.2397,0.1558,19.695,10.305,17.439,0.5679,100577.84
0.5352,-0.1606,-0.1562,33.293,29.085,-12.012,0.5802,100578.27
0.7817,0.1138,-0.0811,60.732,-10.427,-55.854,0.7941,100577.85
1.1973,0.3359,-0.1636,14.634,-19.512,-42.988,1.2542,100577.42
1.0898,0.2749,-0.1313,-9.024,-29.329,3.171,1.1316,100577.59
1.5889,0.1567,-0.0029,-15.366,-43.293,15.488,1.5966,100576.95
1.8506,0.1948,-0.0405,-45.305,-25.0,-1.646,1.8613,100576.84
1.4995,-0.0562,0.6211,-45.427,-18.963,3.963,1.624,100577.76
1.3154,-0.125,0.2993,-41.341,-16.768,18.415,1.3548,100578.3
0.9351,-0.0884,0.2539,-22.622,-3.415,38.476,0.9729,100578.08
0.6045,-0.0742,0.46,-35.305,12.988,34.451,0.7632,100578.04
0.4326,-0.0146,0.0391,-68.171,9.939,19.512,0.4346,100578.01
0.4834,-0.0186,-0.0957,-79.634,-2.927,6.28,0.4931,100577.6
0.5586,-0.0874,0.061,-64.939,17.866,-7.5,0.5687,100578.43
0.645,-0.0249,-0.1123,-33.049,29.268,-16.159,0.6552,100578.8
0.9629,0.0786,-0.1646,-15.122,33.78,-15.305,0.98,100578.34
1.3076,0.1431,-0.2456,-3.415,21.829,-3.049,1.3382,100578.85
1.2969,0.1499,-0.1973,22.927,11.951,11.098,1.3203,100578.98
1.5405,0.1147,0.1987,48.415,-22.988,-0.732,1.5575,100577.84
1.3882,0.1602,0.1821,43.659,-9.573,-15.244,1.4092,100578.2
1.3101,0.0854,0.4658,48.049,24.878,-13.902,1.393,100578.39
1.3911,0.186,0.6221,59.146,3.598,-10.183,1.5352,100578.04
1.1025,0.2886,0.2095,33.659,-26.28,-17.988,1.1588,100577.52
0.7803,0.0308,0.2319,30.854,-18.232,-3.598,0.8146,100577.41
0.5815,-0.0605,0.1079,54.695,16.463,20.61,0.5946,100577.05
0.5566,0.0229,-0.0435,77.134,15.0,31.098,0.5588,100577.65
0.4873,0.0024,0.0381,58.659,10.427,22.805,0.4888,100577.61
0.4839,-0.0356,-0.0562,21.768,-3.537,-6.646,0.4884,100578.33
0.7759,0.1074,-0.0967,-4.024,-10.305,-27.378,0.7892,100578.85
1.1138,0.1968,-0.2261,-33.232,-18.598,-21.646,1.1534,100577.89
1.186,0.1299,-0.1519,-28.78,-25.244,8.11,1.2028,100578.27
1.3003,0.0322,-0.0508,-2.988,-40.976,18.415,1.3017,100578.43
1.6543,0.0098,0.0146,-4.878,-38.11,5.976,1.6544,100578.07
1.4917,-0.1519,0.5288,-19.39,-1.646,20.793,1.5899,100577.92
1.5356,-0.1782,0.5649,-36.951,15.915,31.951,1.6459,100577.8
1.2217,-0.2275,0.1714,-67.134,0.122,26.159,1.2545,100578.19
0.7378,-0.2368,0.2031,-76.707,-12.805,7.683,0.801,100577.6
0.4917,-0.123,0.1001,-75.549,12.195,-14.085,0.5167,100577.42
0.48,-0.0542,-0.043,-76.22,15.061,-26.22,0.4849,100577.9
0.5435,-0.043,0.0205,-69.268,29.695,-27.256,0.5455,100577.27
0.6689,0.0171,-0.0552,-45.854,42.256,-20.183,0.6714,100577.03
0.8066,0.0415,-0.0332,-24.024,26.89,-10.549,0.8084,100576.73
0.8955,0.1138,-0.2007,-35.915,36.402,-1.951,0.9247,100577.03
1.0908,0.1138,-0.2773,-30.305,9.085,-14.451,1.1313,100577.35
1.5479,0.1533,0.0674,6.098,-54.573,-20.488,1.5569,100578.21
1.5737,0.2329,-0.0576,29.756,-34.085,-8.902,1.5919,100578.5
1.3657,0.1118,0.3579,36.524,18.11,6.28,1.4163,100578.12
1.3394,0.0264,0.8237,43.72,8.902,10.732,1.5726,100577.7
1.0825,0.1284,0.4282,16.159,-1.341,-2.561,1.1712,100578.65
0.8657,0.0005,0.1162,-14.573,-7.378,-30.427,0.8735,100578.73
0.6538,-0.0957,0.1792,11.463,37.134,-24.451,0.6846,100579.14
0.5645,-0.04,0.2109,23.963,58.11,-10.732,0.6039,100578.73
0.6582,-0.0254,0.2153,-7.744,39.146,-9.756,0.693,100578.41
0.667,-0.0884,0.0479,-39.268,41.524,-1.159,0.6745,100578.3
0.8594,0.0342,-0.104,-29.451,18.415,-1.829,0.8663,100577.97
0.9937,0.1392,0.0825,-31.28,-1.707,-7.439,1.0067,100577.61
0.9736,0.146,0.0947,-50.366,-28.963,-1.037,0.9891,100577.31
1.0181,0.0786,0.0317,-52.073,-20.366,16.341,1.0216,100578.32
1.2476,0.0205,0.248,-38.78,-6.768,18.171,1.2721,100577.46
1.3477,-0.04,0.3662,-47.5,-27.317,0.0,1.3971,100577.71
1.2539,-0.2368,0.7075,-41.341,-37.5,-6.28,1.4591,100577.27
1.3901,-0.2393,0.916,-70.61,8.902,-17.561,1.6819,100576.93
1.3018,-0.2964,0.4297,-129.39,-2.439,-21.341,1.4025,100577.16
0.8472,-0.2422,0.168,-123.11,-40.671,-11.402,0.897,100576.33
0.5244,-0.1294,0.1704,-104.329,-22.805,-15.061,0.5664,100576.32
0.6328,0.0225,0.0176,-100.976,-7.988,-19.207,0.6335,100576.95
0.7568,0.0024,-0.0034,-106.28,10.915,-10.183,0.7568,100577.68
0.7832,-0.0693,0.0879,-87.744,19.756,-0.61,0.7912,100577.35
0.8057,-0.0122,0.1309,-74.817,5.366,-5.793,0.8163,100577.11
0.9336,-0.021,-0.0415,-77.256,-28.049,-17.622,0.9348,100576.69
1.0728,0.0005,-0.0596,-55.0,-5.854,-25.61,1.0744,100577.7
1.2349,0.0288,0.0073,-49.268,-17.744,-38.354,1.2352,100577.38
1.5571,-0.0654,-0.0215,-57.988,-3.049,-36.707,1.5587,100577.02
1.4858,-0.2109,0.1528,-50.122,52.561,-33.902,1.5085,100577.59
1.2134,-0.1035,0.4575,-58.902,20.671,-36.28,1.3009,100575.83
0.9775,-0.0107,0.3555,-115.366,-52.5,-40.854,1.0402,100575.97
1.0,-0.1187,0.4883,-138.293,-14.146,-60.488,1.1192,100575.33
0.9307,-0.0669,0.4844,-102.012,4.878,-55.061,1.0513,100575.5
0.8252,0.0425,0.4565,-102.256,-18.659,-27.988,0.944,100575.61
0.6289,0.0562,0.4229,-139.268,-21.037,-23.11,0.7599,100575.93
0.6177,0.0747,0.1973,-153.415,-11.646,-39.817,0.6527,100576.2
0.7842,0.1636,0.0234,-158.78,10.488,-60.854,0.8014,100575.67
0.751,0.1255,0.1406,-181.037,-7.5,-79.207,0.7743,100575.98
0.8325,0.1392,0.1216,-157.561,-38.841,-56.707,0.8528,100576.2
0.8428,0.1816,0.0825,-123.963,-30.122,-11.28,0.8661,100576.62
0.9897,0.1611,0.2783,-117.5,-29.634,2.195,1.0407,100576.07
1.1895,0.1387,0.4243,-139.634,-47.317,-9.085,1.2705,100576.52
1.3047,-0.0327,0.5312,-146.341,-40.0,-22.622,1.4091,100576.52
1.5356,-0.0737,0.6069,-114.085,-13.963,-18.537,1.6529,100576.98
1.4893,-0.1572,0.5962,-100.122,-12.134,7.073,1.6118,100576.22
0.8613,-0.2559,0.3535,-103.963,-4.024,24.512,0.9656,100576.88
0.4102,-0.2505,0.3345,-96.646,-8.902,12.744,0.5855,100576.63
0.5176,-0.0957,0.2842,-82.439,0.061,-7.317,0.5982,100576.59
0.7905,-0.0146,0.1494,-89.695,14.146,-10.0,0.8047,100577.78
0.981,-0.0229,0.105,-97.5,25.0,2.256,0.9868,100576.72
0.9258,-0.0459,0.1177,-87.012,24.329,10.854,0.9344,100577.24
0.8872,-0.0659,0.1392,-73.049,23.415,3.415,0.9005,100578.27
0.9746,-0.0142,0.0513,-50.0,20.671,-17.927,0.9761,100578.68
1.3804,0.1206,0.0859,7.256,-9.207,-17.134,1.3883,100579.2
1.3823,-0.0317,0.2598,34.756,-2.622,3.72,1.4069,100578.88
1.2646,-0.1606,0.5869,31.159,24.756,10.061,1.4034,100578.27
1.124,-0.1255,0.7266,3.841,50.183,-0.671,1.3443,100578.81
1.1333,0.0078,0.5752,-7.866,32.5,-23.354,1.2709,100578.83
0.874,0.0156,0.4634,-7.622,48.78,-37.134,0.9894,100579.09
0.7812,0.0312,0.4536,-6.646,26.585,-25.0,0.9039,100578.77
0.6445,0.0078,0.3047,-30.976,-2.683,-19.329,0.713,100578.29
0.8638,0.0386,0.1299,-56.22,-66.341,-37.683,0.8743,100579.01
0.7998,0.0337,0.0249,-75.305,-55.671,-51.89,0.8009,100578.69
0.5942,0.0557,0.0859,-42.317,-34.024,-33.171,0.603,100578.05
0.9219,0.1753,0.2988,-2.561,-20.976,21.463,0.9848,100577.55
1.1504,0.1543,0.1782,-11.28,-22.134,45.061,1.1743,100578.04
1.2734,-0.0098,0.3501,-16.341,-68.72,24.146,1.3207,100577.66
1.3945,-0.0664,0.4077,-5.122,-92.256,-6.89,1.4544,100577.16
1.4336,-0.1206,0.7456,28.415,-55.488,2.866,1.6204,100576.88
1.4219,-0.2075,0.8696,33.72,-25.305,16.402,1.6796,100577.02
0.9302,-0.2842,0.3174,-2.622,-44.817,7.378,1.0231,100576.76
0.7065,-0.1982,0.2173,1.707,-73.963,4.268,0.7653,100577.06
0.6011,-0.1353,0.1069,-13.659,-31.22,-4.451,0.6253,100577.53
0.4126,-0.0889,-0.1426,-33.78,8.72,-9.573,0.4455,100577.25
0.4326,-0.0845,0.0215,-19.695,2.134,1.829,0.4413,100576.93
0.5396,-0.0386,-0.0435,-19.573,-2.561,0.244,0.5427,100576.94
0.7583,0.0479,-0.2739,-18.11,6.585,-2.317,0.8077,100576.34
1.1064,-0.021,-0.1367,-11.402,6.098,-2.378,1.1151,100575.35
1.3955,0.0815,-0.1855,0.122,13.476,1.098,1.4101,100575.29
1.4668,0.0327,-0.0327,8.78,-11.402,-12.378,1.4675,100576.82
1.5742,0.0586,0.1294,20.61,-43.598,-26.22,1.5806,100578.1
1.2778,0.0518,0.2378,24.085,-9.146,3.354,1.3008,100578.2
1.2339,-0.2529,0.6035,40.61,45.122,47.561,1.3967,100577.45
1.2651,-0.043,0.4624,57.378,7.012,23.476,1.3477,100577.59
1.0679,0.0669,0.1763,28.11,-29.451,-22.134,1.0844,100577.8
0.6709,-0.019,0.1885,28.049,0.732,-27.012,0.6971,100578.1
0.563,-0.0044,0.147,43.232,-4.756,-22.317,0.5819,100577.96
0.5806,0.0083,0.063,23.963,-11.28,-23.354,0.584,100578.47
0.4897,0.0342,-0.0474,2.683,3.171,-22.805,0.4932,100578.34
0.4351,0.0498,-0.0161,15.183,-1.22,-22.134,0.4382,100577.75
0.6006,0.1372,0.0039,11.768,-20.061,-16.707,0.6161,100577.69
1.0728,0.2485,-0.3726,-36.646,-33.293,-2.5,1.1625,100577.28
1.3701,0.1748,-0.3013,-34.878,2.195,24.024,1.4137,100576.98
1.6055,0.0078,0.0811,-32.134,-43.415,10.488,1.6075,100577.23
1.7158,0.1729,-0.0493,-38.598,-55.61,-3.171,1.7252,100576.94
1.5205,0.0762,0.5303,6.768,7.5,20.61,1.6121,100577.09
1.4023,-0.1553,0.5718,-18.293,19.146,21.951,1.5224,100577.27
1.0405,-0.02,-0.2046,-17.134,-14.329,21.951,1.0606,100575.81
0.5532,-0.1401,-0.021,-14.939,38.902,3.171,0.5711,100576.15
0.6836,-0.1504,0.1479,-4.39,27.866,3.171,0.7154,100576.45
0.8584,-0.022,-0.022,-31.829,35.244,12.988,0.859,100577.03
1.1235,0.0093,-0.3052,-53.171,30.671,0.488,1.1643,100577.09
1.2593,0.063,-0.2617,-12.439,2.988,-18.78,1.2877,100577.25
1.5552,0.1602,-0.0791,40.732,-36.402,-27.683,1.5654,100577.25
1.687,0.1733,-0.0073,47.134,-27.622,-11.89,1.6959,100576.55
1.4614,0.0186,0.2881,65.793,4.573,10.549,1.4897,100575.88
1.1846,-0.0244,0.5215,94.207,-8.232,16.829,1.2945,100575.76
1.0098,0.123,0.3623,85.427,-46.829,2.805,1.0798,100575.41
0.896,0.1108,0.2197,50.122,-44.207,-23.415,0.9292,100575.78
0.5957,0.0488,0.0786,27.134,14.939,-24.573,0.6028,100575.33
0.4868,0.085,0.0396,23.78,48.171,-17.988,0.4958,100575.09
0.4775,0.0464,0.0107,12.5,51.585,-8.476,0.4799,100574.32
0.4619,0.0088,-0.0225,17.5,47.805,-5.488,0.4625,100574.82
0.7476,0.0806,0.0952,18.841,3.78,-13.963,0.7579,100575.2
1.2432,0.23,-0.0986,-29.207,-29.695,-14.878,1.2681,100575.61
1.312,0.1089,-0.2427,-67.988,-4.451,16.463,1.3387,100575.2
1.1831,-0.1128,0.0742,-30.427,-33.78,19.756,1.1908,100574.99
1.6777,0.0459,0.1055,-1.28,-77.195,4.329,1.6817,100574.45
1.5166,0.0503,0.2944,-9.512,10.915,26.89,1.5457,100574.95
1.4121,-0.0752,0.71,-44.756,26.28,18.171,1.5823,100574.8
0.646,-0.1011,0.0366,-20.061,-32.195,17.744,0.6549,100575.7
0.2847,-0.0825,0.2236,-24.573,2.683,1.22,0.3713,100575.75
0.3491,0.0117,0.1104,-45.305,-19.878,-15.305,0.3663,100576.27
0.7397,0.1045,-0.1523,-63.841,16.098,-4.39,0.7625,100575.64
0.6631,-0.0098,-0.0317,-41.829,64.085,11.402,0.6639,100574.7
0.8311,-0.0044,-0.1382,-0.549,66.707,16.829,0.8425,100575.71
1.4023,0.2065,-0.543,25.427,29.878,18.659,1.5179,100575.61
1.4092,0.0635,-0.0356,45.793,16.037,30.671,1.4111,100576.12
1.3647,-0.1284,0.1699,38.293,8.841,16.159,1.3813,100576.02
1.6299,0.1157,0.186,51.22,17.195,5.793,1.6445,100575.96
1.4272,-0.0781,0.5464,42.073,38.659,13.902,1.5303,100575.8
1.1069,-0.1323,0.6094,24.573,-17.378,-1.89,1.2705,100575.56
0.8931,0.0952,0.2026,44.878,-59.878,-15.732,0.9207,100575.85
0.7764,0.0566,0.1816,43.598,-25.0,-10.122,0.7993,100574.6
0.6143,-0.0039,0.1821,15.488,-14.817,-13.049,0.6407,100574.5
0.5405,-0.0093,0.02,-7.988,-11.28,-27.256,0.541,100574.69
0.6123,0.02,-0.0659,-2.683,14.268,-32.561,0.6162,100574.84
0.6084,-0.0063,0.1812,22.805,58.11,-13.72,0.6348,100574.79
0.6807,0.0083,0.0752,8.293,98.415,6.829,0.6849,100574.77
1.0679,0.1445,0.0073,-43.171,-3.049,-24.329,1.0776,100575.87
1.522,0.1406,-0.0815,-84.756,-68.293,-31.707,1.5306,100575.23
1.3701,-0.2422,0.0591,-76.22,-29.39,-5.549,1.3926,100574.73
1.3828,-0.2764,0.3794,-7.866,-44.573,-5.732,1.4603,100574.47
1.5425,-0.145,0.8237,9.939,-35.488,-9.451,1.7547,100576.27
1.3057,-0.1533,0.3784,-55.671,-29.756,-12.317,1.368,100576.12
1.0117,-0.1411,0.1689,-69.085,-0.976,-0.305,1.0354,100576.04
0.5767,-0.0996,0.3911,-65.488,45.671,3.415,0.7039,100575.62
0.4556,-0.0352,0.188,-93.293,23.11,-16.829,0.4941,100575.05
0.6514,0.0127,-0.0527,-87.5,-2.378,-22.073,0.6536,100574.73
0.7065,0.0171,0.002,-58.232,24.695,-6.402,0.7068,100575.25
0.8145,0.0513,-0.0156,-44.207,15.549,3.963,0.8162,100576.0
1.0,0.0474,-0.2446,-43.11,9.146,2.683,1.0306,100575.8
1.1323,0.0205,-0.2534,-35.244,25.427,0.61,1.1605,100576.02
1.4268,0.0288,0.002,-5.976,14.268,-9.939,1.427,100576.2
1.5259,-0.0537,0.27,-12.256,19.573,-11.524,1.5505,100576.45
1.2568,-0.1606,0.5474,-38.659,20.244,-16.89,1.3802,100576.8
1.0537,-0.2808,0.7769,-54.878,-27.988,-40.427,1.3389,100576.03
1.0352,-0.0986,0.501,-76.951,-64.695,-45.488,1.1542,100575.84
1.1035,-0.0063,0.5386,-106.707,-25.244,-60.854,1.2279,100575.7
0.8999,-0.146,0.5435,-128.232,-15.488,-63.72,1.0614,100575.96
0.7236,-0.0449,0.1836,-117.866,0.366,-53.476,0.7479,100575.55
0.5864,0.0933,0.123,-101.463,17.012,-47.744,0.6064,100575.13
0.6123,0.1021,0.1841,-101.341,6.463,-50.671,0.6475,100575.17
0.7139,0.0337,0.1421,-79.024,20.671,-39.939,0.7287,100575.72
1.0005,0.2056,0.1147,-44.817,40.061,-28.841,1.0278,100575.22
0.9341,0.3081,0.1357,-57.439,-2.805,-21.159,0.9929,100575.1
0.8257,0.1929,0.167,-70.671,-54.573,-9.512,0.8642,100575.51
0.8057,0.1396,0.188,-82.195,-29.695,-6.89,0.839,100575.21
1.0122,0.106,0.2041,-110.61,-28.659,-11.524,1.038,100575.72
1.2319,0.0151,0.2886,-130.732,-30.244,-13.78,1.2654,100575.23
1.1226,-0.1089,0.4038,-117.073,-53.659,-15.366,1.1979,100574.88
1.1196,-0.0947,0.5361,-84.329,-57.378,-15.671,1.245,100575.45
1.4478,-0.0825,0.9673,-92.561,11.951,-10.122,1.7431,100574.66
1.2886,-0.0542,0.5952,-153.232,-1.28,-10.61,1.4204,100574.18
0.9414,-0.0195,-0.0376,-171.646,-39.268,2.012,0.9424,100574.34
0.6074,-0.0854,0.1304,-112.744,22.073,-3.598,0.6271,100574.44
0.5669,-0.0415,0.252,-75.366,1.22,-50.61,0.6217,100574.78
0.7788,0.0244,0.0298,-69.329,12.012,-50.488,0.7798,100574.64
0.793,0.0327,0.1948,-22.805,47.561,-38.78,0.8172,100574.94
0.9453,0.0762,0.4087,3.232,22.622,-33.049,1.0327,100576.4
1.1299,0.0776,0.2241,-27.805,8.415,-20.671,1.1545,100576.21
1.4932,0.0625,0.0308,-36.159,9.146,-19.268,1.4948,100576.35
1.8091,-0.0566,0.5396,-6.646,-2.317,-3.049,1.8887,100577.3
1.4268,-0.0947,0.4629,-30.0,-3.171,7.073,1.503,100576.93
0.8872,-0.0229,0.6934,-33.11,-23.841,16.098,1.1262,100576.05
0.667,0.1113,0.5132,-63.659,-73.293,-4.695,0.8489,100575.5
0.7207,-0.0332,0.3042,-115.732,-48.659,-32.744,0.783,100576.08
0.7251,-0.146,0.4531,-96.829,-21.89,-51.28,0.8674,100575.89
0.7915,0.0488,0.3467,-77.683,-35.427,-61.463,0.8655,100576.75
0.7324,0.1641,0.2544,-97.073,-45.793,-52.256,0.7925,100576.9
0.5874,0.0752,0.2197,-122.134,-14.207,-33.78,0.6316,100576.74
0.6318,0.0957,0.0254,-109.634,-5.061,-29.512,0.6395,100577.48
0.7788,0.355,-0.0381,-84.573,-31.098,-20.671,0.8567,100577.88
0.9932,0.3672,-0.0225,-80.244,-52.866,-15.122,1.0591,100577.96
1.3457,0.3281,0.0195,-47.927,-66.768,-14.146,1.3853,100577.52
1.2305,0.1519,0.2368,-36.463,-61.463,10.244,1.2622,100578.2
1.4595,0.1255,0.1836,-60.793,-76.646,3.598,1.4763,100578.09
1.5601,0.0371,0.1216,-68.78,-64.329,4.817,1.5652,100577.74
1.5337,-0.1387,0.5161,-33.049,23.476,34.756,1.6241,100578.11
1.1313,0.0298,0.4307,-0.244,-2.805,33.11,1.2109,100577.51
0.7251,0.1035,0.314,-32.378,-46.524,24.939,0.7969,100578.03
0.4775,0.0557,0.1694,-65.732,-9.573,20.732,0.5098,100578.68
0.3916,0.0669,-0.1582,-67.622,1.402,15.793,0.4276,100578.16
0.4692,0.0396,-0.001,-48.232,16.89,11.89,0.4709,100578.05
0.6479,0.0732,0.1289,-39.756,48.11,14.939,0.6647,100577.7
0.9141,0.1152,0.0093,-44.634,50.61,21.707,0.9213,100578.52
1.1025,0.0503,0.0947,-52.439,95.0,25.549,1.1077,100579.03
1.3003,-0.0186,0.0815,-47.805,49.512,13.11,1.303,100578.64
1.5083,-0.0068,-0.1328,27.439,-38.415,-4.634,1.5142,100578.49
1.7417,-0.0767,0.498,100.183,-49.878,-4.329,1.8131,100578.28
1.4092,-0.2754,0.8257,77.134,2.317,9.512,1.6563,100577.26
1.0234,-0.1489,0.6401,60.061,14.207,6.28,1.2163,100576.09
1.0498,0.1938,0.3135,79.939,-28.232,-15.366,1.1126,100575.85
0.814,0.1699,0.104,69.878,-21.707,-13.232,0.838,100575.91
0.3628,-0.0176,0.5347,55.0,15.122,10.0,0.6464,100575.34
0.4194,0.0552,0.0615,14.817,-20.488,3.11,0.4275,100575.39
0.5625,0.0645,0.0435,-8.354,-14.207,-1.707,0.5678,100574.95
0.5776,0.0112,0.1289,-30.183,19.39,-3.476,0.592,100575.79
0.7183,0.1016,0.0474,-33.11,11.707,-10.0,0.727,100575.7
1.2646,0.1631,-0.126,-46.463,-48.78,-23.476,1.2813,100575.42
1.4307,0.1211,-0.207,-34.146,-54.512,6.707,1.4506,100576.08
1.2729,-0.0771,0.1689,-21.341,-28.11,30.0,1.2864,100575.55
1.3823,-0.0752,0.314,-22.5,-43.841,5.488,1.4195,100575.29
1.4966,0.0576,0.5845,-34.207,11.524,-5.854,1.6077,100575.61
1.5518,-0.1299,0.3564,-79.39,21.159,-20.061,1.5975,100576.45
1.21,-0.1382,0.2261,-59.451,19.695,-14.146,1.2386,100577.45
0.5396,-0.1362,0.5308,-52.439,48.476,-6.768,0.769,100578.06
0.3101,-0.0337,0.1582,-76.159,1.098,-33.659,0.3497,100577.55
0.3745,0.0176,-0.2012,-81.768,-20.122,-41.829,0.4255,100577.65
0.3647,-0.063,0.0347,-54.329,8.049,-26.585,0.3718,100577.37
0.5449,0.0151,0.0459,-28.598,-0.061,-1.341,0.5471,100577.91
1.0698,0.1445,-0.1475,-7.195,12.439,30.061,1.0896,100578.4
1.5215,0.2383,-0.2241,22.683,37.561,52.378,1.5563,100578.5
1.3652,0.1221,0.0889,33.476,43.354,53.476,1.3736,100578.35
1.3677,0.0894,0.189,56.159,-6.707,8.049,1.3836,100578.11
1.3574,0.1719,0.4375,86.646,-17.866,-21.585,1.4365,100577.81
1.1313,-0.0278,1.123,83.72,44.329,-1.768,1.5944,100577.84
1.2051,0.2114,0.7275,60.183,41.28,5.61,1.4235,100576.99
1.1504,0.2119,0.124,30.549,-30.061,-14.878,1.1763,100577.48
0.7827,-0.0732,0.2754,36.768,-1.159,-0.244,0.833,100578.08
0.4893,-0.0771,0.1812,66.22,9.146,8.963,0.5274,100577.18
0.5835,0.0322,-0.0698,73.171,-10.854,8.354,0.5885,100576.4
0.5947,-0.0371,0.1099,52.805,17.012,18.415,0.6059,100576.77
0.5508,0.04,0.1558,50.183,27.378,19.573,0.5738,100576.8
1.2021,0.4653,-0.0801,25.915,-51.341,7.683,1.2916,100577.33
1.105,0.0142,0.104,-50.244,-58.293,23.598,1.11,100578.07
1.1899,-0.127,0.2295,-20.061,-34.39,19.329,1.2185,100577.41
1.9727,0.1445,0.085,-6.22,-75.732,-5.366,1.9798,100577.55
1.5635,-0.3242,0.8027,-40.0,-44.146,-10.183,1.7872,100577.52
1.0703,-0.3291,0.6904,-7.866,-10.244,17.134,1.3155,100578.37
0.728,-0.2422,0.4478,-6.646,-6.89,32.134,0.8883,100578.02
0.54,-0.1646,0.2266,-42.622,-15.915,4.878,0.6083,100578.13
0.5825,0.0083,-0.0869,-61.402,36.098,-13.963,0.589,100577.73
0.5908,0.064,-0.0825,-71.646,57.134,-19.329,0.6,100577.7
0.5654,0.0771,-0.0103,-64.085,18.232,-23.598,0.5708,100577.76
0.8232,0.1216,-0.0889,-58.476,26.524,-10.793,0.8369,100577.81
1.0781,0.0996,-0.2383,-45.366,42.5,4.878,1.1086,100578.23
1.168,-0.0024,-0.0249,-11.524,24.451,15.915,1.1682,100577.78
1.4697,-0.0122,0.1348,25.061,-19.451,7.134,1.4759,100578.21
1.5537,0.0854,0.1426,28.659,-38.11,-5.671,1.5626,100577.3
1.3184,-0.1641,0.6895,26.768,1.585,-3.598,1.4968,100577.11
1.1304,-0.2124,0.8101,52.927,-2.805,-0.732,1.4068,100577.22
1.084,0.2153,0.3618,60.488,-21.951,-3.354,1.1629,100576.55
0.8804,0.1772,0.2646,32.988,-9.451,-7.073,0.9362,100577.19
0.5923,-0.042,0.3325,13.537,28.659,-5.793,0.6805,100577.64
0.4756,-0.0059,0.0566,0.976,36.463,-0.915,0.479,100578.48
0.5293,-0.061,-0.0161,-28.415,28.049,-6.585,0.533,100578.72
0.5591,-0.0679,-0.0176,-36.463,18.72,-12.805,0.5635,100578.78
0.7378,0.1372,0.0132,-43.049,18.963,-22.927,0.7506,100578.84
0.9678,0.1982,0.0811,-61.829,-18.902,-17.317,0.9912,100579.09
1.2788,0.1299,-0.0112,-59.817,-63.049,-8.11,1.2854,100578.8
1.5327,0.0483,0.1108,-28.841,-47.317,1.829,1.5375,100579.79
1.8447,0.2837,0.1855,8.171,-50.305,1.829,1.8756,100579.71
1.5615,0.0576,0.5249,-8.902,-6.89,10.183,1.6484,100579.89
1.2031,-0.2251,0.4634,-43.476,48.841,7.866,1.3088,100579.64
0.8711,-0.2051,0.168,-19.085,32.317,17.866,0.9105,100579.81
0.6821,-0.2202,0.3818,5.183,-0.61,22.012,0.8122,100578.7
0.5625,-0.2173,0.3115,-21.341,15.122,8.72,0.6787,100577.88
0.6162,-0.127,0.0112,-45.305,28.537,-9.878,0.6293,100577.4
0.6846,-0.1152,0.0771,-35.061,32.622,-8.841,0.6985,100577.38
0.6196,-0.0879,0.1548,-22.256,14.207,-5.0,0.6447,100578.61
0.9678,-0.0103,0.106,-32.683,1.524,-5.61,0.9736,100578.65
1.1953,-0.0688,0.0107,-52.5,41.098,-2.134,1.1973,100579.55
1.2065,-0.1372,-0.0928,-38.78,25.305,-18.476,1.2179,100578.62
1.2432,-0.063,0.0322,-3.537,-24.451,-31.402,1.2452,100578.89
1.3491,0.062,0.2773,7.012,-8.72,-29.024,1.3787,100578.27
1.354,-0.0698,0.5864,-20.793,23.293,-36.22,1.4772,100579.11
1.1016,-0.1372,0.627,-28.232,1.463,-38.415,1.2749,100578.05
1.0132,0.0342,0.521,-15.122,-61.28,-39.634,1.1398,100577.11
0.8765,0.082,0.4233,-11.768,-43.354,-35.549,0.9768,100577.66
0.6992,-0.0576,0.3521,-28.293,6.646,-22.134,0.785,100577.45
0.7246,-0.0449,0.1514,-39.695,12.378,-12.073,0.7416,100577.66
0.7119,0.0078,-0.0366,-53.72,-0.671,-13.476,0.7129,100577.45
0.6138,-0.0479,-0.0024,-73.293,-23.72,-34.451,0.6156,100577.17
0.7422,0.0845,-0.0161,-84.39,-42.5,-54.207,0.7472,100577.09
0.8706,0.1436,0.0337,-86.585,-34.634,-33.963,0.883,100577.53
0.8091,0.1133,0.1245,-73.659,-10.549,-2.195,0.8264,100577.97
1.0786,0.0405,0.1797,-64.207,-16.707,-6.768,1.0942,100577.95
1.5,0.1475,0.0708,-35.305,-29.207,-11.098,1.5089,100577.84
1.5518,0.0562,0.3701,-9.573,-21.89,10.183,1.5963,100577.45
1.4434,-0.2378,0.8818,-40.244,7.805,22.439,1.7081,100578.68
1.1621,-0.2222,0.6411,-84.695,5.488,14.573,1.3457,100578.6
0.8481,-0.1572,0.228,-109.939,-25.61,4.878,0.8922,100578.19
0.6807,-0.2612,0.2363,-117.561,7.683,-12.805,0.7664,100578.86
0.7983,-0.0928,0.0557,-83.537,18.598,-25.793,0.8056,100579.84
0.8979,0.0854,-0.0034,-59.207,17.256,-6.829,0.902,100579.09
0.7842,0.0493,0.0991,-78.659,7.439,6.707,0.792,100578.56
0.8657,0.0259,0.0142,-86.402,11.89,2.683,0.8662,100579.41
1.0083,0.0068,-0.0205,-69.329,15.122,1.22,1.0085,100579.77
0.9351,-0.0034,0.0396,-51.585,-10.732,-4.695,0.9359,100580.67
1.02,0.0767,0.0933,-45.732,-9.207,-20.305,1.0271,100581.34
1.2847,-0.0107,0.2437,-61.22,-14.695,-42.805,1.3076,100580.48
1.479,-0.3091,0.3896,-73.11,-13.963,-59.573,1.5604,100579.98
1.0894,-0.2588,0.8125,-48.415,85.427,-50.915,1.3834,100578.99
0.8613,0.0181,0.8394,-64.146,28.537,-51.707,1.2028,100578.63
1.043,0.0273,0.6587,-130.488,-42.622,-76.951,1.2339,100578.88
0.8857,-0.0703,0.6562,-158.293,-9.146,-92.866,1.1046,100579.4
0.8052,0.0977,0.4849,-153.049,20.732,-98.354,0.945,100578.31
0.79,0.188,0.3716,-158.415,-12.561,-96.28,0.8931,100577.66
0.644,0.146,0.1973,-161.707,-37.134,-67.5,0.6892,100577.65
0.7505,0.1411,0.2183,-157.561,-40.0,-52.439,0.7942,100577.62
0.7388,0.1377,0.1958,-147.744,-42.683,-31.402,0.7766,100576.83
0.7319,0.1392,0.2246,-123.902,-34.634,-18.537,0.7782,100577.84
1.0044,0.2236,0.2305,-115.305,-39.207,-21.524,1.0545,100577.34
1.1743,0.2876,0.2256,-135.976,-20.122,-19.085,1.2299,100577.12
1.1504,0.1699,0.457,-136.707,-3.841,-10.427,1.2495,100578.3
1.501,0.1045,0.5815,-113.354,-50.915,-0.366,1.6131,100577.7
1.5059,-0.1406,0.5225,-105.0,-74.512,29.512,1.6001,100577.38
1.063,-0.3892,0.4106,-98.598,-55.122,47.256,1.2042,100577.52
0.7222,-0.2944,0.3281,-74.207,-71.646,28.354,0.8461,100577.75
0.4243,-0.1826,0.1484,-76.951,-53.476,8.78,0.4852,100578.31
0.3472,-0.1509,0.1343,-68.902,-16.829,-2.317,0.4016,100578.98
0.5688,-0.0898,0.0913,-52.012,12.012,-2.317,0.5831,100579.11
0.8745,-0.041,0.1655,-47.927,22.561,7.927,0.891,100578.21
1.229,-0.0381,0.1099,-49.573,-2.561,20.488,1.2345,100578.28
1.4268,-0.019,-0.4751,-33.11,24.634,41.951,1.5039,100579.33
1.2354,-0.1816,-0.2944,12.622,28.11,39.146,1.2829,100579.73
1.2441,-0.248,0.0225,53.841,-17.256,-3.293,1.2688,100579.54
1.4092,-0.1748,0.2217,69.146,-22.988,-26.28,1.4372,100579.65
1.4458,-0.0967,0.2368,40.976,9.268,-35.305,1.4683,100578.87
1.2114,-0.3604,0.729,25.732,53.354,-18.963,1.4591,100578.65
0.9072,-0.1743,0.4673,31.585,-42.927,-25.183,1.0353,100578.82
0.9473,0.0454,0.1118,37.683,-69.268,-44.695,0.9549,100578.72
0.8125,0.1138,0.1436,45.793,-42.012,-20.0,0.8329,100578.81
0.626,0.1553,0.0347,6.707,-45.732,-13.598,0.6459,100578.66
0.5381,0.0679,0.0645,-16.098,-31.098,-6.22,0.5462,100578.8
0.5063,0.0596,0.0483,-7.256,-20.305,-5.122,0.5121,100578.15
0.6748,0.1016,0.021,-5.244,-3.902,-2.073,0.6827,100579.39
1.0059,0.1992,-0.0938,-7.134,-5.732,10.732,1.0297,100579.7
1.2676,0.0879,0.0093,-27.012,-5.305,19.451,1.2707,100578.95
1.6904,0.0615,-0.1113,-36.707,-59.634,-3.11,1.6952,100579.13
1.6392,0.0439,-0.1172,-37.988,-40.549,6.037,1.6439,100579.38
1.5142,-0.0835,0.4331,-23.232,16.098,21.951,1.5771,100579.43
1.2446,-0.2466,0.3696,-24.878,-2.256,5.915,1.3216,100579.12
0.7891,-0.2695,0.1968,-4.695,-41.646,9.817,0.8567,100577.53
0.4824,-0.1113,0.2949,15.793,-17.561,15.122,0.5763,100577.42
0.4062,-0.0376,0.0542,-25.305,0.488,-1.098,0.4116,100577.95
0.4917,-0.0674,-0.144,-56.707,32.012,-5.488,0.5168,100577.99
0.48,-0.0708,-0.0474,-36.463,33.598,1.829,0.4875,100577.31
0.6548,-0.0337,-0.1274,-19.512,-2.378,-9.268,0.6679,100577.52
0.9619,-0.0488,-0.1553,-23.902,20.61,-13.293,0.9756,100577.92
1.2549,0.0742,-0.2432,-38.841,15.0,-11.646,1.2804,100579.7
1.4775,0.0137,-0.2778,-42.378,1.28,-19.39,1.5035,100580.17
1.8813,0.0933,-0.124,17.5,-15.671,-35.427,1.8877,100579.79
1.7261,0.1387,0.0981,51.402,5.732,-12.866,1.7344,100578.51
1.2891,-0.3188,0.8813,61.768,21.159,37.012,1.5938,100577.7
0.999,-0.0396,0.3936,55.488,-15.183,17.927,1.0745,100577.91
0.8989,0.1841,-0.0693,40.061,-28.415,-22.5,0.9202,100577.96
0.6519,0.0317,0.1094,51.951,9.573,-22.073,0.6617,100577.84
0.332,0.0449,0.0225,66.829,34.817,-2.256,0.3358,100577.62
0.2534,0.0435,0.0298,68.78,50.061,7.988,0.2588,100578.08
0.5552,0.062,0.0962,27.622,27.256,-2.927,0.5668,100578.04
0.749,0.1016,-0.0303,-25.183,18.963,-6.951,0.7565,100577.77
1.0698,0.2207,-0.1597,-38.171,-24.634,-7.378,1.104,100577.33
1.2334,0.1958,-0.1235,-37.134,-21.402,2.927,1.2549,100577.62
1.3325,0.0698,0.2222,-20.427,-39.207,21.463,1.3527,100578.31
1.6021,0.0771,0.1436,-27.378,-58.78,-15.488,1.6103,100578.7
1.5898,0.2295,-0.0635,-20.61,-32.988,-25.122,1.6076,100578.24
1.5645,0.041,0.4644,-8.537,-2.805,-3.659,1.6324,100579.48
1.2305,-0.1055,0.2002,-3.72,15.915,18.232,1.2511,100581.41
0.7041,-0.0674,0.0796,17.256,-4.146,26.89,0.7118,100581.03
0.4868,-0.0889,0.0854,13.354,-10.488,16.463,0.5022,100581.47
0.4604,-0.1191,0.0166,-16.098,36.463,6.402,0.4759,100581.18
0.5298,-0.0698,-0.0215,-21.463,51.098,0.915,0.5348,100580.97
0.5737,0.0181,0.0117,1.098,18.049,-1.768,0.5741,100581.17
0.8359,0.0073,-0.1079,-2.317,75.061,13.963,0.8429,100581.82
1.2451,0.0454,-0.2358,2.012,82.317,7.744,1.2681,100581.55
1.4199,0.0571,-0.0435,23.049,-42.744,-13.171,1.4217,100581.97
1.5947,0.0376,-0.0562,27.073,-62.5,-13.232,1.5962,100581.3
1.562,0.1411,0.3057,66.037,-32.561,-3.476,1.5979,100580.95
1.4541,-0.0918,0.874,77.378,-18.11,3.659,1.699,100579.71
1.2544,0.3433,0.4795,57.317,-42.195,-8.598,1.3861,100579.22
0.8042,0.3008,-0.0088,14.268,-65.793,-8.902,0.8587,100579.48
0.5566,-0.0923,0.1396,20.0,-31.951,2.256,0.5813,100580.27
0.4766,-0.0386,0.0117,26.037,-8.049,-3.415,0.4783,100579.77
0.5586,0.0913,-0.1489,24.085,-6.037,-1.037,0.5853,100579.13
0.4678,0.0669,0.0205,19.268,17.5,3.659,0.473,100578.23
0.417,0.1128,-0.0703,0.305,4.146,-16.402,0.4377,100578.16
1.1177,0.3149,-0.2793,-16.402,-60.305,-18.354,1.1943,100578.21
1.064,0.2104,-0.3608,-30.366,-40.915,28.476,1.143,100578.74
1.3008,-0.0288,-0.3081,-11.159,-29.329,39.024,1.3371,100580.85
1.6934,0.1113,-0.5498,-7.012,-61.951,-1.463,1.7839,100579.29
1.562,0.1748,-0.2183,4.329,-38.232,0.732,1.5868,100578.94
1.3999,-0.2773,0.6768,-2.256,7.683,32.439,1.5794,100578.09
1.293,-0.2202,-0.0713,-14.024,-11.159,25.976,1.3135,100578.89
0.9946,-0.0796,-0.1953,23.293,-51.098,24.268,1.0167,100579.29
0.5742,-0.1821,0.2388,9.451,-17.317,17.5,0.648,100579.2
0.4292,-0.1201,-0.0474,-37.012,-38.171,-12.561,0.4482,100578.91
0.5835,-0.0425,-0.1655,-45.61,-55.488,-22.195,0.608,100579.3
0.6138,-0.0649,-0.2856,-44.512,-18.841,-14.695,0.6801,100579.58
0.6597,-0.0352,-0.4385,-26.159,-5.915,-12.561,0.7929,100579.56
0.7861,-0.0029,-0.6396,-16.951,-4.573,-11.707,1.0135,100578.2
0.9766,0.0137,-0.7378,-2.927,-10.61,-17.744,1.224,100578.49
