ax,ay,az,gx,gy,gz,avm,pressure
-1.252,0.019,-0.3638,17.683,2.622,18.354,1.3039,100828.81
-0.9824,0.0259,-0.3047,25.0,16.28,13.659,1.0289,100829.11
-0.8364,0.0366,-0.2026,23.841,18.171,5.793,0.8614,100828.97
-0.8438,0.0596,-0.1943,27.683,21.768,9.573,0.8679,100828.77
-0.9106,0.082,-0.0972,33.963,13.171,16.829,0.9195,100829.09
-0.9785,0.1011,-0.2417,25.427,-12.561,18.78,1.013,100828.96
-0.959,0.0962,-0.3203,17.683,-25.61,16.89,1.0156,100829.37
-0.9048,0.0845,-0.356,10.549,-26.037,8.049,0.9759,100829.55
-0.8145,0.0596,-0.3579,10.976,-30.793,-0.122,0.8916,100830.4
-0.8882,0.0474,-0.3999,10.305,-22.866,2.805,0.9752,100830.2
-0.9111,0.0557,-0.3906,7.5,-14.451,1.646,0.9929,100830.66
-0.9336,0.0723,-0.3633,1.037,-8.354,-3.11,1.0044,100829.78
-0.9775,0.042,-0.3213,-12.134,-8.11,-8.841,1.0298,100829.7
-0.9629,0.0449,-0.436,-26.951,-11.341,-11.28,1.058,100829.44
-0.9946,0.0693,-0.4927,-33.78,8.963,-10.732,1.1121,100829.5
-0.9551,0.1074,-0.4814,-30.61,29.451,-12.256,1.0749,100828.92
-0.9395,0.1494,-0.4204,-11.707,32.5,-14.512,1.04,100827.99
-1.1963,0.0996,-0.3452,3.476,30.61,-11.463,1.2491,100828.15
-1.3184,0.0635,-0.2373,18.598,48.476,-12.744,1.341,100828.4
-0.918,-0.0039,-0.1694,21.585,28.963,-16.707,0.9335,100829.32
-0.7715,-0.1108,-0.2017,12.622,-6.159,-7.256,0.8051,100828.91
-0.8525,-0.1309,-0.2231,16.89,-8.963,10.061,0.8909,100828.46
-0.9629,-0.1011,-0.1616,14.268,-28.354,12.317,0.9816,100827.65
-0.8623,-0.0776,-0.248,3.232,-61.098,7.073,0.9006,100828.13
-0.9043,-0.0884,-0.3989,-15.976,-26.159,22.073,0.9923,100828.35
-1.0757,-0.1045,-0.2983,-14.146,-7.866,27.988,1.1212,100828.55
-1.1147,-0.124,-0.2983,-20.244,-3.537,21.463,1.1606,100828.09
-1.1016,-0.106,-0.3193,-21.402,6.341,14.573,1.1518,100829.33
-1.0518,-0.0649,-0.2861,-17.317,16.768,10.732,1.0919,100829.41
-1.0352,-0.0244,-0.2959,-14.939,9.756,11.463,1.0769,100829.21
-1.0269,0.0278,-0.3452,-10.976,-4.207,11.341,1.0837,100829.08
-1.042,0.0532,-0.3442,-2.012,-13.171,12.012,1.0987,100828.37
-1.3389,0.0,-0.0078,15.915,-14.146,17.5,1.3389,100828.09
-1.2803,0.0493,0.0376,14.634,14.756,3.537,1.2818,100828.23
-0.8291,0.1152,-0.1221,-0.976,41.951,-12.134,0.8459,100828.48
-0.856,0.041,-0.0752,-8.72,30.0,-0.854,0.8602,100828.77
-0.9165,-0.0142,0.0137,-12.012,-1.768,5.488,0.9167,100829.59
-0.9219,-0.0107,-0.1724,-17.805,-15.427,-0.122,0.9379,100829.12
-0.9224,0.0098,-0.2056,-17.317,-16.341,-8.72,0.945,100829.75
-0.8833,0.0483,-0.2153,-24.451,-15.915,-13.171,0.9105,100829.48
-0.9243,0.0913,-0.2095,-35.061,-5.549,-10.0,0.9521,100830.02
-0.9551,0.084,-0.1733,-41.037,2.439,-8.476,0.9743,100829.8
-0.9556,0.0737,-0.2158,-45.549,-1.951,-10.0,0.9824,100829.04
-0.9517,0.0674,-0.2397,-49.024,-3.293,-7.744,0.9837,100828.33
-0.9604,0.043,-0.2334,-51.524,-5.061,-7.988,0.9893,100828.15
-1.0264,0.04,-0.292,-51.768,-3.841,-10.122,1.0678,100828.27
-1.0742,0.0181,-0.3218,-46.22,6.646,-14.695,1.1215,100828.84
-1.0576,-0.0088,-0.4297,-31.89,27.195,-31.341,1.1416,100830.12
-0.9053,-0.0317,-0.4126,-24.268,34.634,-34.756,0.9954,100830.38
-1.2466,-0.0181,-0.1772,-21.159,25.244,-19.451,1.2592,100830.31
-1.3794,0.0088,0.0625,-27.195,23.415,-18.171,1.3808,100830.5
-0.9253,-0.043,-0.0791,-38.476,37.195,-31.159,0.9297,100830.18
-0.8745,-0.0728,-0.0688,-39.817,18.598,-25.915,0.8802,100829.92
-0.9116,-0.0464,-0.0464,-44.024,-16.159,-26.159,0.914,100829.85
-0.9478,-0.0264,-0.1821,-53.232,-14.024,-24.329,0.9655,100829.69
-0.8901,-0.0425,-0.2622,-57.5,-9.268,-16.463,0.9289,100828.7
-0.8359,-0.0542,-0.2114,-65.061,-20.0,-6.463,0.864,100829.43
-0.854,-0.0552,-0.2739,-72.622,-26.463,-2.195,0.8986,100828.64
-0.9302,-0.0557,-0.3374,-67.256,-16.89,3.476,0.991,100828.74
-0.9727,-0.063,-0.2817,-54.024,-9.085,5.854,1.0146,100829.09
-0.9214,-0.0693,-0.3022,-45.854,-8.293,2.805,0.9722,100829.34
-0.9199,-0.0957,-0.3101,-40.854,-3.293,2.5,0.9755,100829.66
-0.9736,-0.0718,-0.3511,-40.0,5.549,2.195,1.0375,100829.53
-1.0244,-0.0049,-0.3462,-37.622,17.134,5.305,1.0813,100829.18
-1.0571,0.0024,-0.3442,-29.939,11.829,5.122,1.1118,100829.05
-1.0469,-0.0396,-0.4028,-22.439,-12.134,1.951,1.1224,100829.92
-1.1177,-0.061,-0.4326,-22.378,-18.72,6.951,1.2,100829.45
-1.3315,-0.1108,-0.105,-16.463,0.671,20.061,1.3403,100829.12
-1.2222,-0.0562,-0.0576,-20.488,21.159,12.134,1.2248,100828.6
-0.8335,0.0166,-0.1064,-21.28,30.671,-3.354,0.8404,100828.62
-0.7407,-0.0117,0.0454,-22.439,17.256,-8.537,0.7422,100828.64
-0.8994,-0.0352,0.0093,-33.598,7.134,-11.829,0.9001,100828.73
-1.0151,-0.0342,-0.0625,-40.183,-4.695,-13.659,1.0176,100829.05
-1.0776,-0.0151,-0.1392,-50.366,-20.549,-15.732,1.0867,100829.41
-0.998,-0.0049,-0.1997,-60.854,-36.037,-20.427,1.0178,100829.33
-0.896,-0.001,-0.2319,-70.061,-28.963,-21.646,0.9255,100829.27
-0.9409,-0.0034,-0.1484,-78.415,-3.476,-18.171,0.9526,100827.99
-0.9614,-0.0044,-0.1226,-88.293,3.476,-23.232,0.9692,100828.25
-0.9341,0.0137,-0.1245,-95.0,-9.39,-26.951,0.9424,100829.08
-0.9814,0.0239,-0.1401,-102.012,-15.732,-21.037,0.9917,100828.45
-1.0483,0.0317,-0.228,-100.427,-14.024,-16.829,1.0733,100828.47
-1.0645,0.001,-0.2681,-88.598,-12.805,-12.744,1.0977,100828.62
-0.9771,-0.0312,-0.2905,-84.39,2.5,-11.098,1.0198,100829.45
-1.0034,-0.0513,-0.2163,-79.39,13.78,-10.061,1.0277,100829.96
-1.0122,-0.0376,-0.2676,-80.183,8.841,-15.793,1.0477,100830.09
-0.9844,-0.0117,-0.335,-78.598,5.061,-21.951,1.0399,100829.59
-1.0122,0.0088,-0.353,-70.549,10.549,-22.622,1.072,100829.58
-1.2056,-0.0454,-0.0908,-56.585,20.854,-15.732,1.2098,100829.22
-1.249,-0.0518,0.0972,-53.659,35.854,-17.866,1.2539,100828.92
-1.0078,-0.1079,-0.0322,-55.427,51.951,-24.024,1.0141,100828.95
-0.9146,-0.1694,0.085,-54.207,21.707,-17.134,0.934,100829.0
-0.9468,-0.1348,0.0957,-74.512,-27.744,-13.171,0.9611,100829.27
-0.9478,-0.1055,-0.2402,-95.915,-40.488,-20.183,0.9834,100829.0
-0.8994,-0.1152,-0.2261,-85.122,-30.732,-22.561,0.9345,100829.39
-0.8926,-0.1138,-0.1528,-77.5,-26.646,-15.0,0.9127,100829.41
-0.9736,-0.0781,-0.1743,-71.28,-24.085,-8.293,0.9922,100828.38
-0.9863,-0.0342,-0.2075,-64.451,-15.488,-7.317,1.0085,100828.66
-0.9917,-0.0239,-0.2227,-57.866,-9.024,-6.037,1.0167,100828.88
-0.9424,-0.0503,-0.252,-54.634,-3.72,-5.549,0.9768,100828.92
-0.8843,-0.1021,-0.2847,-47.683,6.951,-0.61,0.9346,100828.1
-0.9648,-0.1294,-0.3066,-38.72,15.305,6.646,1.0206,100828.24
-1.0581,-0.1138,-0.2783,-31.646,13.902,6.22,1.1,100828.22
-1.0562,-0.0664,-0.2788,-27.988,6.28,4.878,1.0943,100828.31
-1.0972,-0.0864,-0.2822,-24.817,-6.585,13.354,1.1362,100827.92
-1.4233,-0.1172,-0.0752,-13.11,-17.256,21.585,1.4301,100827.84
-1.2656,-0.0439,-0.0693,-11.89,-8.11,4.817,1.2683,100827.82
-0.8198,0.0054,-0.0542,-23.476,23.841,-15.488,0.8216,100828.27
-0.7759,-0.0005,0.0581,-34.329,25.915,-12.866,0.7781,100829.25
-0.9077,-0.0122,0.0923,-35.366,8.232,0.854,0.9125,100828.62
-1.0352,0.0215,-0.0054,-32.378,-10.793,5.854,1.0354,100828.52
-0.9995,0.0176,-0.1421,-27.683,-26.585,-1.768,1.0097,100828.44
-0.9214,-0.0142,-0.1772,-24.329,-23.11,-6.098,0.9384,100828.27
-0.9004,0.001,-0.1675,-29.39,-11.159,-3.902,0.9158,100828.74
-0.9639,0.0229,-0.1421,-38.598,-3.963,-2.012,0.9746,100829.58
-0.9951,0.04,-0.1465,-48.415,-3.902,-3.902,1.0066,100829.36
-0.9468,0.0522,-0.1885,-54.268,-4.573,-8.415,0.9668,100829.3
-0.9531,0.0571,-0.2065,-53.963,-3.537,-7.866,0.9769,100829.16
-0.9854,0.0503,-0.1973,-49.207,-2.683,-5.671,1.0062,100829.28
-1.0112,0.0396,-0.2007,-42.683,0.244,-5.732,1.0317,100829.52
-1.0005,0.0669,-0.2158,-38.415,6.768,-10.732,1.0257,100829.91
-1.0049,0.0884,-0.2949,-36.585,11.707,-8.72,1.051,100829.62
-1.1572,0.085,-0.2559,-30.976,19.268,-2.5,1.1882,100829.14
-1.1831,0.0283,-0.1089,-19.756,30.427,1.646,1.1884,100828.9
-0.937,-0.1406,-0.0342,-14.329,21.159,-3.415,0.9481,100830.2
-0.8306,-0.1436,0.0645,-10.0,6.22,-10.0,0.8453,100829.45
-0.8447,-0.1016,0.0483,-10.366,-6.341,-16.159,0.8522,100828.53
-0.958,-0.0576,-0.0679,-15.976,-25.427,-13.598,0.9621,100829.19
-1.0366,-0.0366,-0.1997,-23.354,-28.902,-2.256,1.0563,100829.31
-1.0547,-0.0537,-0.2002,-20.732,-14.085,3.963,1.0749,100829.16
-0.916,-0.0645,-0.1885,-13.171,1.707,-0.427,0.9374,100829.89
-0.8838,-0.082,-0.1377,-8.232,-1.22,-4.939,0.8982,100829.0
-0.9175,-0.0801,-0.146,-11.524,-7.256,-5.183,0.9325,100828.91
-0.9287,-0.0957,-0.1494,-14.817,-2.195,-0.305,0.9455,100829.24
-0.9624,-0.0811,-0.1621,-13.354,-3.78,4.634,0.9793,100828.62
-0.9917,-0.0298,-0.2378,-10.244,-9.512,4.146,1.0202,100828.64
-1.042,-0.0205,-0.2505,-5.427,-4.939,3.598,1.0719,100828.55
-1.1167,-0.0483,-0.2544,1.524,2.378,6.098,1.1463,100829.21
-1.1069,-0.0757,-0.2749,7.561,8.049,7.256,1.1431,100829.56
-1.0039,-0.0532,-0.3018,7.866,8.902,6.89,1.0496,100829.73
-1.0361,-0.0391,-0.2622,4.939,4.878,7.439,1.0695,100829.58
-1.2778,-0.0601,-0.0068,11.098,-0.427,9.146,1.2793,100829.12
-1.1851,-0.0034,0.0728,15.366,8.11,3.354,1.1873,100828.13
-0.8882,0.0698,0.042,14.024,20.61,-7.256,0.8919,100828.9
-0.8882,0.0654,0.0952,11.28,11.89,-5.122,0.8957,100828.62
-0.8794,0.062,0.0059,14.634,-4.634,1.829,0.8816,100827.92
-0.9775,0.0352,-0.0747,25.122,-18.415,6.768,0.981,100827.87
-0.9526,-0.0044,-0.1377,19.695,-14.207,-1.341,0.9625,100828.99
-0.9014,-0.0073,-0.1416,5.915,-4.268,0.61,0.9125,100829.13
-0.9165,0.0078,-0.1406,-6.28,-2.134,2.622,0.9273,100828.64
-0.9268,0.0132,-0.1631,-11.22,-5.976,0.732,0.9411,100829.03
-0.9497,0.0273,-0.1992,-13.354,-8.659,-3.293,0.9708,100828.95
-1.0078,0.0093,-0.2056,-15.793,-6.829,-5.122,1.0286,100828.88
-1.0605,-0.0127,-0.2256,-19.268,-0.61,-3.537,1.0843,100828.33
-1.0371,-0.0117,-0.2412,-19.573,8.293,-3.78,1.0649,100829.27
-1.0044,-0.0049,-0.228,-19.085,15.488,-12.5,1.03,100829.61
-0.9771,0.0439,-0.2437,-21.646,15.915,-20.488,1.0079,100829.23
-0.9727,0.0986,-0.2651,-23.171,14.451,-19.329,1.013,100829.19
-1.1689,0.0991,-0.229,-25.427,12.744,-10.671,1.1953,100829.16
-1.373,0.0166,-0.0259,-26.159,17.683,0.671,1.3734,100829.02
-1.125,-0.0435,0.0112,-27.195,35.854,2.195,1.1259,100828.8
-0.7808,-0.1084,-0.0137,-23.171,34.207,-3.537,0.7884,100829.1
-0.8252,-0.1313,0.02,-14.207,8.963,-6.22,0.8358,100828.86
-0.9707,-0.0898,-0.041,-10.793,-19.207,-9.085,0.9757,100828.31
-1.063,-0.0273,-0.1611,-8.293,-28.78,-7.866,1.0755,100828.77
-1.0093,-0.0122,-0.2515,-3.354,-21.463,-4.451,1.0402,100829.46
-0.9194,-0.0884,-0.2095,5.0,-2.927,-2.805,0.9471,100829.37
-0.8809,-0.1138,-0.1948,10.0,3.354,-5.122,0.9093,100829.33
-0.9053,-0.1099,-0.1826,11.28,0.61,-5.244,0.93,100829.91
-0.9458,-0.1196,-0.167,10.732,0.122,-4.207,0.9679,100830.12
-0.9521,-0.1089,-0.2192,8.476,-1.524,-3.841,0.9831,100829.73
-0.9712,-0.1016,-0.252,4.634,-6.159,-2.5,1.0085,100830.23
-0.9863,-0.1064,-0.2627,-0.366,-3.659,-0.061,1.0262,100830.11
-1.0205,-0.0845,-0.2603,-3.232,0.0,2.927,1.0566,100829.77
-1.0342,-0.0488,-0.2749,-3.902,-1.646,3.963,1.0712,100829.88
-0.9756,-0.0146,-0.3433,-3.171,1.341,6.28,1.0343,100829.86
-0.9624,-0.0093,-0.4126,0.488,5.366,11.829,1.0472,100830.21
-1.0776,-0.0859,-0.3584,7.134,12.866,17.988,1.1389,100830.36
-1.3145,-0.1494,-0.0239,18.293,15.915,24.207,1.3231,100829.59
-1.2441,-0.0796,0.104,20.488,17.195,15.793,1.251,100828.91
-0.7998,-0.0122,-0.0347,15.305,24.207,-2.5,0.8006,100828.52
-0.8511,-0.0425,-0.0029,10.183,3.476,1.463,0.8521,100828.23
-1.0469,-0.0674,0.0088,11.768,-16.463,7.988,1.0491,100828.64
-1.0117,-0.042,-0.1567,17.744,-28.659,7.012,1.0246,100830.02
-0.9409,-0.0566,-0.2051,19.024,-36.159,1.89,0.9647,100830.3
-0.8999,-0.0728,-0.1963,10.061,-17.988,-1.22,0.9239,100829.83
-0.939,-0.043,-0.1641,-3.902,-0.549,-0.915,0.9542,100830.55
-1.0103,-0.0059,-0.1436,-16.037,0.976,0.183,1.0204,100830.59
-0.981,0.0181,-0.1929,-22.195,-4.207,-0.915,0.9999,100830.53
-0.937,0.0161,-0.2671,-25.244,-5.549,-2.256,0.9745,100830.68
-0.9429,0.0093,-0.2612,-23.902,1.159,-2.622,0.9784,100830.69
-1.0024,0.0063,-0.2192,-18.598,5.061,-3.659,1.0262,100830.58
-1.019,0.0293,-0.2373,-14.024,7.378,-7.134,1.0467,100830.26
-0.9888,0.0239,-0.2578,-10.976,9.756,-5.854,1.0221,100830.61
-0.9873,-0.0024,-0.3354,-11.22,4.207,-4.085,1.0427,100830.5
-0.9956,-0.0073,-0.3857,-10.427,4.634,-1.951,1.0677,100831.03
-1.1406,-0.0103,-0.2729,-8.232,8.049,4.695,1.1729,100830.21
-1.3599,0.0249,-0.0024,-4.573,10.793,10.488,1.3601,100829.98
-1.0571,-0.002,-0.019,-9.146,27.256,-2.134,1.0573,100829.8
-0.791,-0.104,0.0112,-7.378,26.402,-5.854,0.7979,100830.13
-0.9028,-0.0957,0.0132,-3.841,4.512,-5.488,0.908,100830.51
-0.9937,-0.0479,-0.0103,-0.976,-11.524,-11.951,0.9949,100830.8
-1.0205,-0.0439,-0.061,-1.098,-19.329,-14.573,1.0233,100830.53
-1.0518,-0.0322,-0.1309,-5.183,-34.512,-4.939,1.0604,100830.2
-0.918,-0.0244,-0.2588,-11.768,-36.89,3.841,0.9541,100829.46
-0.9141,-0.0566,-0.2422,-7.927,-11.646,8.537,0.9473,100830.02
-0.9414,-0.0713,-0.1826,-0.305,6.768,4.939,0.9616,100829.7
-0.9414,-0.0649,-0.1504,7.134,6.098,2.561,0.9556,100829.45
-0.9414,-0.0571,-0.1313,12.805,-0.854,4.146,0.9522,100829.4
-0.9536,-0.0454,-0.2002,15.671,-8.415,3.963,0.9755,100829.27
-0.9805,-0.0415,-0.2456,19.024,-6.341,3.415,1.0116,100829.38
-1.0391,-0.0396,-0.2271,21.28,0.61,4.756,1.0643,100829.72
-1.0493,-0.0229,-0.2285,21.585,5.305,5.732,1.0742,100829.71
-1.0503,-0.0122,-0.2808,19.817,6.402,8.841,1.0872,100829.85
-1.0605,-0.0112,-0.3408,18.963,5.854,14.207,1.114,100830.2
-1.0786,-0.0151,-0.374,21.159,16.402,18.659,1.1417,100830.23
-1.1152,-0.0688,-0.2002,26.951,16.768,22.073,1.1352,100829.27
-1.2217,-0.0801,-0.0005,32.378,5.549,18.659,1.2243,100828.94
-0.9941,0.0244,0.0288,31.159,8.049,5.976,0.9949,100829.05
-0.8081,0.0913,0.0391,28.354,9.451,-1.524,0.8142,100828.14
-0.9282,0.064,0.0483,27.683,1.341,1.159,0.9317,100828.55
-1.0327,0.0039,0.0376,30.854,-21.402,10.915,1.0334,100828.77
-0.9224,-0.0474,-0.2266,29.817,-30.366,6.341,0.951,100829.3
-0.896,-0.0381,-0.1934,21.463,-15.183,4.878,0.9174,100829.3
-0.8965,0.0083,-0.1465,8.72,-4.512,3.902,0.9084,100829.43
-0.9268,0.0317,-0.1338,0.671,-4.573,2.622,0.9369,100830.0
-0.9897,0.042,-0.1743,-4.634,-7.927,-0.305,1.0059,100829.48
-1.0439,0.0527,-0.2412,-9.268,-5.061,-0.915,1.0727,100829.94
-1.0537,0.0547,-0.231,-7.5,0.915,-0.549,1.0801,100829.67
-0.9985,0.0659,-0.2212,-1.829,8.476,-4.878,1.0249,100828.74
-0.9521,0.0527,-0.2261,3.963,13.293,-8.171,0.98,100828.04
-0.9609,0.0269,-0.2812,7.195,9.878,-7.561,1.0016,100828.09
-1.0034,0.022,-0.3638,7.195,7.683,-5.061,1.0675,100828.64
-1.0884,0.0352,-0.29,5.854,8.537,1.646,1.1269,100828.53
-1.356,0.0449,0.062,7.256,-2.927,13.232,1.3581,100828.7
-1.2715,0.083,0.0474,1.463,10.793,9.695,1.2751,100829.59
-0.8179,0.021,-0.125,1.768,31.22,-1.037,0.8276,100830.12
-0.7891,-0.0493,-0.0127,14.024,13.171,-2.378,0.7907,100830.65
-0.9731,-0.0063,0.0386,25.793,-0.549,-1.463,0.9739,100829.83
-1.042,0.0303,-0.0322,26.951,0.061,-5.61,1.0429,100829.23
-1.0752,0.0244,-0.1162,17.805,-9.878,-1.768,1.0817,100828.64
-0.9565,-0.0063,-0.1626,9.268,-13.415,4.634,0.9703,100829.07
-0.8623,-0.0405,-0.21,8.171,-2.195,5.0,0.8884,100829.38
-0.8882,-0.0605,-0.2168,13.963,3.171,3.476,0.9163,100829.35
-0.9448,-0.0718,-0.2036,20.061,1.89,3.354,0.9692,100829.84
-0.9604,-0.0835,-0.2261,22.317,1.646,5.793,0.9902,100829.7
-0.9463,-0.0693,-0.2627,14.634,8.841,6.829,0.9845,100830.16
-0.9771,-0.043,-0.2197,11.768,13.659,7.317,1.0024,100830.81
-1.001,-0.0239,-0.2451,11.159,10.915,10.122,1.0308,100830.34
-1.0293,-0.0645,-0.334,11.037,1.098,13.293,1.084,100830.45
-1.1245,-0.0884,-0.3833,10.0,-4.451,16.22,1.1913,100829.8
-1.3013,-0.084,-0.1865,11.524,6.951,20.427,1.3172,100829.58
-1.2188,-0.0254,0.167,12.5,9.451,10.0,1.2304,100829.12
-0.8833,0.0742,0.0415,-14.634,-8.354,-10.854,0.8874,100829.55
-0.7148,0.0991,-0.1064,-31.22,-11.951,-14.878,0.7295,100830.11
-1.0532,0.0376,-0.0244,-19.451,-17.744,8.354,1.0542,100830.03
-1.2183,0.0498,-0.1284,-12.195,-20.854,12.683,1.226,100829.8
-1.0396,0.0425,-0.1865,-12.134,-12.012,-1.707,1.057,100828.43
-0.8672,0.0088,-0.1357,-21.402,1.829,-9.878,0.8778,100829.13
-0.7798,0.0249,-0.1309,-36.707,1.159,-9.512,0.7911,100829.14
-0.8657,0.0654,-0.1104,-44.146,-6.585,-4.451,0.8752,100828.66
-0.9541,0.1006,-0.146,-47.012,-14.085,-2.866,0.9704,100829.02
-0.9805,0.0957,-0.2222,-49.634,-16.28,-1.28,1.0099,100829.78
-1.0073,0.0464,-0.229,-52.073,-13.293,1.768,1.0341,100829.39
-1.0215,0.0146,-0.2007,-52.805,-3.11,2.317,1.0411,100829.85
-1.0244,0.0166,-0.187,-48.78,4.695,-1.098,1.0415,100830.05
-1.0112,0.0312,-0.2192,-42.805,4.268,-6.28,1.0352,100830.2
-1.0254,0.0425,-0.2837,-37.134,4.207,-7.927,1.0648,100830.7
-1.0586,0.0493,-0.3389,-32.866,11.159,-8.049,1.1126,100830.2
-1.0894,0.0718,-0.2783,-29.085,21.098,-10.427,1.1266,100830.2
-1.2432,0.0693,-0.0464,-24.207,22.5,-10.549,1.246,100830.43
-1.1582,0.0518,0.022,-25.366,15.366,-9.878,1.1596,100830.36
-0.8877,-0.0669,0.0342,-30.427,10.915,-10.61,0.8909,100830.57
-0.8286,-0.0869,0.0981,-33.963,-0.183,-14.939,0.8389,100830.35
-0.9346,-0.064,0.0762,-42.5,-9.695,-19.207,0.9398,100829.71
-1.0146,-0.0371,0.0181,-57.073,-10.976,-15.549,1.0155,100829.71
-1.0771,-0.0112,-0.0225,-70.732,-25.854,0.0,1.0774,100829.96
-0.9912,0.0269,-0.1851,-80.976,-36.341,7.256,1.0087,100830.37
-0.9116,0.0151,-0.2227,-74.39,-19.634,3.293,0.9385,100830.09
-0.9287,-0.0347,-0.1626,-63.78,1.646,-3.537,0.9435,100830.12
-0.9355,-0.0547,-0.1274,-55.122,3.841,-3.232,0.9458,100830.76
-0.9517,-0.0352,-0.1084,-46.098,-2.317,2.5,0.9585,100831.11
-0.9395,-0.0034,-0.146,-38.537,-6.037,4.451,0.9507,100831.27
-0.9927,-0.0068,-0.2075,-30.976,-6.463,5.427,1.0142,100831.38
-1.0469,-0.0088,-0.2148,-24.512,2.378,5.915,1.0687,100831.22
-1.0723,0.0156,-0.2222,-18.78,12.683,7.744,1.0952,100830.22
-1.0728,0.0156,-0.2593,-14.756,14.024,9.451,1.1038,100829.98
-1.1084,0.0078,-0.291,-12.744,13.415,13.72,1.146,100829.18
-1.2905,-0.0498,-0.0649,-7.5,8.72,17.866,1.2931,100829.09
-1.2622,-0.0649,0.0918,-8.415,14.939,11.159,1.2672,100829.36
-0.9043,-0.0166,0.0479,-17.317,44.451,-2.622,0.9057,100828.6
-0.8374,-0.001,0.0688,-30.183,42.195,-10.488,0.8402,100829.25
-0.957,0.0044,0.04,-47.012,15.976,-9.085,0.9579,100829.98
-0.9951,0.0024,-0.022,-50.61,3.293,-0.671,0.9954,100830.14
-0.9741,-0.0015,-0.0908,-42.561,-3.537,-1.098,0.9783,100830.88
-0.9062,-0.0024,-0.1353,-35.183,-14.695,-11.646,0.9163,100831.32
-0.8862,0.019,-0.1699,-38.293,-24.329,-17.012,0.9026,100830.77
-0.9976,0.042,-0.144,-47.012,-22.683,-11.402,1.0088,100830.98
-1.0298,0.0791,-0.1216,-58.293,-5.732,-7.378,1.04,100830.78
-0.9658,0.1035,-0.1484,-65.061,4.634,-8.476,0.9826,100830.49
-0.937,0.0776,-0.1533,-65.915,6.037,-8.841,0.9526,100830.52
-0.957,0.0171,-0.1597,-64.695,5.976,-8.78,0.9704,100829.94
-1.0532,-0.0156,-0.2056,-64.329,2.988,-6.951,1.0732,100830.34
-1.0474,0.0142,-0.2349,-65.915,7.439,-8.78,1.0735,100830.66
-1.0054,0.0259,-0.27,-70.244,21.159,-11.768,1.0413,100831.63
-0.999,0.0132,-0.3228,-73.537,25.671,-13.598,1.0499,100831.38
-1.0088,0.0215,-0.3613,-73.476,25.671,-11.524,1.0718,100830.59
-1.1372,0.0376,-0.2485,-68.537,25.061,-9.756,1.1647,100830.24
-1.3721,0.0107,0.0298,-62.622,23.476,-5.671,1.3724,100829.98
-1.0688,-0.0142,-0.002,-60.488,48.171,-15.793,1.0689,100830.64
-0.8154,-0.0693,-0.0479,-56.402,58.11,-15.305,0.8198,100830.53
-0.8623,-0.0879,-0.0161,-58.902,28.293,-10.305,0.8669,100830.31
-0.9272,-0.0591,-0.0317,-61.463,4.939,-16.22,0.9297,100830.39
-0.9951,-0.0049,-0.1289,-66.768,-4.817,-18.598,1.0034,100830.7
-0.9932,0.0244,-0.1631,-64.146,-21.951,-17.073,1.0068,100829.77
-0.9106,0.0278,-0.1733,-57.073,-37.5,-13.354,0.9274,100829.84
-0.9106,0.0107,-0.2681,-51.341,-43.171,-12.256,0.9493,100829.41
-0.9595,-0.0166,-0.3159,-42.378,-35.427,-8.963,1.0103,100829.23
-0.9902,-0.0371,-0.2886,-35.061,-17.012,-6.341,1.0321,100829.43
-0.9585,-0.0244,-0.2651,-34.939,2.561,-5.366,0.9948,100829.69
-0.9253,-0.0132,-0.2578,-38.476,10.793,-3.476,0.9606,100830.39
-0.9946,0.0493,-0.2915,-37.073,14.939,7.5,1.0376,100830.82
-1.0503,0.0596,-0.2979,-30.671,12.5,10.305,1.0933,100830.73
-1.0957,0.0132,-0.3081,-24.756,1.402,15.244,1.1383,100831.05
-1.1313,-0.0146,-0.3003,-23.72,-16.646,19.207,1.1706,100830.78
-1.3188,-0.0776,-0.1182,-20.976,-23.293,24.634,1.3264,100830.0
-1.1592,-0.0566,-0.0981,-22.988,4.146,13.72,1.1647,100829.86
-0.791,-0.0034,-0.0786,-31.89,27.988,-2.317,0.7949,100830.15
-0.7676,0.0264,0.062,-43.659,21.463,-6.402,0.7705,100830.35
-0.936,0.0552,0.0669,-47.805,18.415,-4.268,0.94,100829.64
-1.0879,0.083,0.0337,-41.829,17.927,-0.732,1.0916,100829.39
-1.1021,0.1016,-0.0801,-39.268,1.22,-4.695,1.1096,100829.18
-0.9619,0.083,-0.1191,-35.915,-21.89,-11.22,0.9728,100829.51
-0.8877,0.0684,-0.1587,-35.976,-25.061,-14.39,0.9044,100829.73
-0.9565,0.0571,-0.1846,-37.439,-15.244,-10.366,0.9759,100830.18
-1.0107,0.0991,-0.145,-39.451,-0.122,-9.695,1.0259,100829.4
-0.9546,0.1558,-0.1289,-44.634,13.902,-13.232,0.9758,100829.54
-0.9111,0.1577,-0.1362,-49.329,15.061,-12.012,0.9347,100829.64
-0.9321,0.1509,-0.1611,-50.427,1.28,-6.585,0.9579,100830.48
-0.9746,0.0942,-0.2334,-46.646,-14.512,-2.439,1.0066,100830.13
-1.0464,0.0044,-0.2812,-36.707,-18.72,-4.756,1.0835,100829.98
-1.0854,-0.0889,-0.2729,-32.805,-4.817,-14.207,1.1228,100830.2
-1.0586,-0.104,-0.2383,-37.683,15.0,-20.427,1.0901,100830.66
-1.104,-0.0933,-0.2671,-47.866,26.159,-19.939,1.1397,100830.97
-1.1196,-0.0024,-0.2432,-58.78,20.122,-24.39,1.1457,100830.39
-1.083,0.0688,-0.1616,-67.988,7.622,-31.524,1.0972,100830.76
-1.1187,0.0513,-0.0811,-72.073,3.354,-32.988,1.1228,100830.23
-0.9897,0.0435,-0.0747,-75.305,21.159,-31.829,0.9935,100830.55
-0.8853,-0.0269,-0.0054,-72.561,37.378,-23.72,0.8857,100830.8
-0.9053,-0.082,0.0337,-63.659,36.28,-19.085,0.9096,100830.73
-0.9526,-0.0581,-0.0244,-56.402,18.78,-17.622,0.9547,100829.94
-1.0044,-0.0156,-0.0713,-52.378,-7.866,-15.305,1.007,100829.95
-1.0107,0.0342,-0.1328,-49.756,-24.878,-11.89,1.02,100829.59
-0.8789,0.064,-0.2144,-44.207,-28.293,-10.488,0.9069,100829.83
-0.8545,0.0376,-0.2417,-35.61,-24.024,-5.793,0.8888,100830.01
-0.8853,-0.0298,-0.2388,-26.646,-11.829,1.159,0.9174,100829.9
-0.9424,-0.0776,-0.2246,-15.549,-1.768,9.268,0.9719,100830.22
-1.002,-0.0718,-0.2329,-6.646,-3.293,11.768,1.0312,100829.82
-0.9863,-0.0376,-0.2612,-2.012,-7.561,7.744,1.021,100830.62
-0.9814,-0.0391,-0.25,0.244,-2.927,6.098,1.0135,100831.7
-1.0146,-0.021,-0.2505,1.829,1.707,8.11,1.0453,100830.82
-1.0444,0.0151,-0.2983,1.585,0.122,10.305,1.0863,100831.0
-1.0605,0.0312,-0.353,-0.549,-2.195,15.488,1.1182,100830.65
-1.1289,-0.0039,-0.314,0.0,-5.915,21.037,1.1718,100829.89
-1.2725,-0.0435,-0.1118,4.268,-5.61,22.866,1.2781,100829.09
-1.1826,-0.0278,-0.0215,3.415,9.085,17.561,1.1831,100827.29
-0.9238,0.062,0.0234,1.951,22.317,1.28,0.9262,100825.95
-0.8677,0.0933,0.0649,-0.122,18.476,-5.671,0.8751,100824.81
-1.0049,0.0537,0.0503,4.146,2.744,1.768,1.0076,100824.69
-1.0015,0.0576,-0.0713,12.439,-12.195,3.293,1.0057,100824.95
-0.9331,0.0444,-0.1284,16.89,-25.488,-1.951,0.9429,100826.34
-0.8711,0.0303,-0.209,8.78,-24.085,-3.902,0.8963,100828.13
-0.9351,0.0469,-0.2153,-3.171,-10.854,-0.305,0.9607,100829.37
-0.9365,0.0469,-0.1875,-16.829,0.305,-1.951,0.9563,100829.2
-0.9385,0.0713,-0.1626,-22.805,7.561,-3.293,0.9551,100829.44
-0.9668,0.0728,-0.2075,-25.549,5.61,-3.963,0.9915,100829.5
-0.9692,0.0513,-0.2275,-26.89,6.524,-5.854,0.9969,100829.43
-0.9917,0.0518,-0.21,-26.098,11.22,-7.439,1.015,100828.15
-0.9966,0.0732,-0.2119,-24.756,12.805,-9.024,1.0215,100828.27
-0.9883,0.0996,-0.2495,-23.11,11.341,-10.61,1.0241,100828.86
-1.0356,0.105,-0.3315,-23.293,7.073,-9.939,1.0925,100828.7
-1.0664,0.0815,-0.3921,-23.11,9.268,-9.634,1.1391,100828.45
-1.1416,0.0327,-0.248,-17.866,13.293,-4.085,1.1687,100828.37
-1.2905,0.0645,-0.0918,-14.878,18.415,8.11,1.2954,100828.57
-1.0903,0.0239,-0.0913,-16.707,29.817,5.0,1.0944,100827.87
-0.8984,-0.0571,0.0322,-13.902,23.476,-3.354,0.9008,100828.45
-0.8877,-0.0659,0.0566,-17.927,10.305,-12.256,0.8919,100828.88
-0.9072,-0.0581,-0.0127,-30.671,-0.61,-18.354,0.9092,100827.98
-0.9946,-0.0557,-0.1035,-42.439,-15.183,-9.634,1.0015,100827.2
-0.9995,-0.0249,-0.1611,-48.11,-29.939,4.695,1.0127,100828.18
-0.9092,-0.0107,-0.2261,-41.402,-28.963,7.927,0.9369,100828.67
-0.917,-0.0005,-0.2202,-27.744,-15.0,1.28,0.9431,100828.81
-0.9346,-0.0356,-0.1909,-19.573,1.341,-3.78,0.9545,100828.42
-0.958,-0.0669,-0.1631,-16.707,5.976,2.073,0.9741,100828.98
-0.9702,-0.0552,-0.1772,-18.232,0.0,6.89,0.9878,100828.66
-0.959,-0.042,-0.2295,-20.793,-4.573,4.451,0.987,100829.15
-0.9922,-0.0591,-0.25,-21.89,-1.585,4.268,1.0249,100829.04
-1.0298,-0.0449,-0.2529,-22.927,5.976,5.488,1.0613,100829.33
-1.0396,0.0015,-0.2847,-25.122,10.061,4.939,1.0778,100828.42
-1.0103,0.0293,-0.3589,-25.427,11.707,6.22,1.0725,100828.6
-1.0298,0.0132,-0.3721,-17.744,11.707,12.744,1.095,100828.62
-1.3315,-0.0298,-0.084,-4.39,6.159,20.671,1.3345,100829.98
-1.27,0.0117,0.019,-5.549,24.207,8.11,1.2702,100829.68
-0.9272,0.0454,-0.0112,-13.72,43.902,-12.256,0.9284,100830.3
-0.9521,0.0166,0.0874,-30.61,34.512,-20.549,0.9563,100829.77
-0.9502,0.0039,-0.02,-51.341,21.463,-19.878,0.9504,100829.01
-0.9468,0.0161,-0.1035,-51.768,4.451,-13.659,0.9526,100829.29
-0.9482,0.0273,-0.1191,-45.976,-8.415,-21.28,0.9561,100829.03
-0.8838,0.0371,-0.1558,-46.402,-15.793,-33.841,0.8982,100829.45
-0.9429,0.0225,-0.1484,-58.963,-18.11,-29.146,0.9547,100829.34
-1.0396,0.022,-0.1279,-77.561,-10.061,-16.22,1.0476,100829.3
-1.0376,0.0181,-0.1445,-95.366,2.744,-10.366,1.0478,100829.37
-1.0142,0.0015,-0.1479,-107.805,3.78,-14.756,1.0249,100828.58
-0.9033,-0.0015,-0.1401,-112.927,-6.829,-22.378,0.9141,100828.71
-0.9409,0.0132,-0.1826,-114.451,-9.573,-18.476,0.9586,100829.06
-0.978,0.0156,-0.2119,-108.902,-6.524,-14.207,1.0008,100828.7
-0.9834,0.0093,-0.2285,-100.61,-2.683,-14.268,1.0096,100828.57
-1.0312,-0.0078,-0.2397,-92.378,1.037,-16.585,1.0588,100829.56
-1.0898,-0.0347,-0.2969,-89.451,12.988,-17.927,1.1301,100829.8
-1.022,-0.0327,-0.3398,-86.646,22.073,-18.963,1.0775,100829.13
-1.2461,-0.0903,-0.105,-69.024,18.171,-26.951,1.2538,100828.95
-0.9697,-0.0425,-0.062,-74.573,60.183,-32.012,0.9726,100828.73
-0.8022,-0.1147,0.002,-74.207,28.171,-29.878,0.8104,100828.06
-0.9277,-0.0679,0.0693,-82.134,3.415,-28.476,0.9328,100826.98
-0.9341,-0.0459,-0.0894,-99.085,8.72,-31.89,0.9395,100827.23
-0.9941,-0.0396,-0.1611,-109.573,-9.39,-27.378,1.0079,100827.43
-0.9741,-0.02,-0.1802,-113.049,-33.11,-18.902,0.9908,100827.69
-0.9165,-0.0234,-0.2388,-110.366,-40.427,-13.72,0.9474,100827.87
-0.9521,-0.0215,-0.2852,-100.854,-36.951,-11.22,0.9942,100827.91
-0.9727,-0.0332,-0.3198,-89.207,-24.39,-8.72,1.0244,100828.4
-0.9521,-0.0532,-0.3325,-79.146,-8.415,-5.366,1.0099,100828.31
-0.9189,-0.083,-0.3271,-69.695,7.073,-1.037,0.979,100828.35
-0.9326,-0.1025,-0.3398,-61.829,15.732,2.012,0.9979,100828.49
-0.9678,-0.1074,-0.3315,-56.037,22.866,4.634,1.0286,100829.46
-1.0342,-0.0815,-0.3398,-52.195,24.207,5.488,1.0916,100830.7
-1.0967,-0.0942,-0.3398,-49.085,11.402,5.427,1.152,100830.49
-1.2383,-0.1143,-0.2617,-46.707,-2.561,9.085,1.2708,100829.98
-1.3149,-0.0605,-0.1021,-48.11,-1.402,8.476,1.3203,100829.86
-0.9678,0.0132,-0.1216,-57.073,25.366,-6.585,0.9755,100829.77
-0.8066,0.019,-0.0605,-61.646,34.451,-19.695,0.8091,100829.58
-0.9175,0.0151,-0.0288,-64.024,27.256,-20.854,0.9181,100828.34
-1.0542,0.0273,-0.0518,-59.573,23.78,-13.232,1.0558,100827.63
-1.105,0.0537,-0.1191,-59.329,9.207,-18.476,1.1127,100828.45
-0.8364,0.0,-0.168,-79.329,-14.39,-27.805,0.8531,100829.26
-0.8799,0.0059,-0.189,-91.646,-13.902,-23.659,0.9,100828.33
-0.9795,0.043,-0.1987,-98.415,-9.024,-21.341,1.0004,100829.47
-0.9868,0.0742,-0.209,-101.28,-0.183,-21.707,1.0114,100829.23
-0.9673,0.0669,-0.2046,-102.012,5.305,-21.402,0.9909,100828.92
-0.9619,0.0493,-0.2212,-99.329,4.512,-19.756,0.9882,100828.81
-0.9712,0.0366,-0.2505,-90.976,0.427,-18.11,1.0036,100828.98
-0.9932,0.0342,-0.3076,-80.0,-2.012,-18.293,1.0403,100828.86
-1.0288,0.0293,-0.3672,-70.305,-2.256,-20.488,1.0928,100829.62
-1.0337,0.002,-0.4194,-67.561,1.524,-24.39,1.1155,100829.45
-1.0029,-0.0405,-0.4468,-69.756,14.512,-27.561,1.0987,100830.55
-1.0137,-0.0562,-0.376,-71.524,20.793,-30.244,1.0826,100830.52
-1.2188,-0.0566,-0.0908,-73.11,6.951,-26.159,1.2234,100830.4
-1.2524,-0.0098,0.0493,-81.098,15.732,-21.707,1.2535,100830.2
-0.9033,-0.0386,-0.0479,-80.305,40.244,-26.768,0.9054,100829.03
-0.8218,-0.0933,-0.0151,-69.39,19.573,-24.634,0.8272,100828.88
-0.9155,-0.0845,-0.0215,-65.244,-8.171,-25.0,0.9197,100828.66
-0.9795,-0.0547,-0.0942,-66.89,-14.085,-26.159,0.9855,100828.98
-1.0425,-0.0093,-0.1357,-71.402,-24.634,-21.646,1.0513,100829.12
-0.9326,0.0186,-0.187,-72.805,-32.439,-14.451,0.9514,100829.32
-0.8735,-0.0044,-0.2368,-66.524,-29.085,-9.756,0.9051,100829.85
-0.9258,-0.0396,-0.2544,-57.5,-17.561,-5.488,0.9609,100829.77
-0.9614,-0.0483,-0.2427,-48.415,-0.854,-0.366,0.9928,100829.95
-0.9644,-0.0435,-0.2368,-39.695,8.902,2.195,0.994,100830.7
-0.9678,-0.0308,-0.2539,-30.793,6.89,4.085,1.001,100830.13
-0.9785,-0.0322,-0.2959,-22.439,0.793,4.878,1.0228,100829.85
-1.019,-0.0381,-0.3115,-13.598,0.671,6.463,1.0663,100830.38
-1.0361,-0.0229,-0.3203,-5.793,6.707,8.537,1.0848,100830.4
-1.0161,-0.0186,-0.3315,0.122,7.561,9.939,1.069,100829.91
-1.0015,-0.0459,-0.3398,3.902,2.988,12.378,1.0586,100829.09
-1.1333,-0.0723,-0.2725,5.488,-5.671,15.61,1.1678,100829.31
-1.2866,-0.0825,-0.1104,8.598,-8.963,15.244,1.294,100829.37
-1.0923,0.0068,-0.0962,6.707,17.805,1.829,1.0965,100829.38
-0.8979,0.0693,-0.0522,-0.244,34.817,-12.683,0.9021,100829.78
-0.9023,0.0664,-0.0127,-8.72,23.293,-12.927,0.9049,100830.08
-0.9624,0.0625,-0.061,-8.963,9.634,-2.561,0.9664,100829.91
-0.9868,0.0688,-0.1191,-4.939,-5.122,-0.793,0.9964,100829.43
-0.9409,0.0278,-0.1484,-6.037,-20.793,-8.659,0.953,100828.94
-0.8662,0.0049,-0.2056,-15.976,-25.244,-9.634,0.8903,100828.95
-0.8877,0.0337,-0.2417,-26.768,-22.683,-3.354,0.9206,100828.7
-0.9756,0.064,-0.2539,-31.22,-16.402,-0.793,1.0101,100829.01
-0.9731,0.0596,-0.3013,-31.159,-5.122,-4.634,1.0205,100828.88
-0.9292,0.0273,-0.3057,-29.512,6.098,-6.951,0.9786,100829.04
-0.9526,0.0239,-0.2988,-29.085,8.902,-6.463,0.9987,100829.02
-1.002,0.0454,-0.3008,-27.622,7.073,-5.122,1.0471,100829.52
-1.0068,0.0674,-0.312,-26.951,9.756,-3.476,1.0562,100829.62
-0.9902,0.0508,-0.3159,-29.207,17.805,-6.098,1.0406,100830.08
-0.9517,0.0205,-0.3203,-35.0,24.024,-10.61,1.0043,100830.05
-0.9556,0.0361,-0.3271,-38.72,17.073,-11.768,1.0107,100829.89
-1.1646,0.0605,-0.2661,-34.695,-3.476,-12.927,1.1961,100829.42
-1.3726,0.0581,-0.1641,-30.854,-3.598,-11.037,1.3835,100830.06
-1.0996,-0.0508,-0.1582,-27.378,27.073,-10.976,1.1121,100829.56
-0.8564,-0.1265,-0.0781,-22.744,37.012,-12.012,0.8692,100829.7
-0.8447,-0.1436,-0.0493,-21.28,21.646,-20.122,0.8583,100829.14
-0.8755,-0.1504,-0.0586,-26.951,9.756,-27.195,0.8902,100829.25
-1.0566,-0.0874,-0.1714,-40.793,-0.061,-18.72,1.074,100829.07
-1.0122,-0.085,-0.1807,-51.951,-25.061,-14.878,1.0317,100829.45
-0.8647,-0.0518,-0.2402,-58.841,-37.439,-7.134,0.899,100828.97
-0.8057,-0.0635,-0.3188,-54.268,-34.451,-9.939,0.8688,100828.62
-0.9111,-0.0874,-0.3325,-45.0,-17.927,-9.939,0.9738,100829.12
-0.9551,-0.0679,-0.3374,-38.537,-0.854,-6.89,1.0152,100829.23
-0.9683,-0.0459,-0.3027,-32.927,5.183,-2.622,1.0155,100829.54
-0.9849,-0.0396,-0.2871,-28.78,8.293,3.11,1.0266,100829.31
-0.9893,-0.0254,-0.3057,-23.293,9.39,7.378,1.0357,100828.91
-0.9888,-0.0215,-0.3506,-17.683,5.061,9.085,1.0493,100829.8
-0.9971,-0.0542,-0.3999,-13.537,-1.951,12.073,1.0756,100829.63
-1.0674,-0.1108,-0.415,-8.232,-8.659,17.988,1.1506,100830.26
-1.2827,-0.1343,-0.2104,1.524,-8.415,22.073,1.3068,100830.34
-1.291,-0.0679,-0.0464,2.561,12.927,13.659,1.2936,100830.39
-0.9478,0.0244,-0.0674,-10.305,37.5,-7.866,0.9505,100830.42
-0.8135,0.021,-0.0195,-30.061,28.598,-18.78,0.814,100829.7
-0.9272,0.0068,0.0039,-46.829,9.939,-10.305,0.9273,100830.16
-1.0552,0.022,-0.0464,-48.72,-0.244,0.549,1.0564,100830.01
-1.0435,0.0278,-0.1377,-46.037,-18.476,-7.805,1.0529,100830.02
-0.9233,-0.0063,-0.1777,-50.366,-32.073,-21.646,0.9403,100830.12
-0.8672,-0.0122,-0.1709,-66.098,-28.659,-22.378,0.884,100829.84
-0.9565,0.0273,-0.1416,-86.829,-15.976,-17.622,0.9674,100829.88
-1.0464,0.02,-0.1602,-115.61,1.463,-14.268,1.0588,100830.66
-1.0239,-0.002,-0.1592,-121.707,-0.122,-18.354,1.0362,100831.09
-0.998,-0.0098,-0.1777,-124.329,1.159,-24.512,1.0138,100830.79
-0.999,-0.0176,-0.1909,-122.927,3.841,-29.146,1.0173,100830.22
-1.0103,-0.0112,-0.1816,-121.768,7.439,-34.695,1.0265,100830.65
-0.9854,0.0,-0.1641,-124.756,10.732,-42.805,0.9989,100830.6
-1.123,-0.0225,-0.0273,-129.817,7.439,-44.817,1.1236,100830.21
-1.085,-0.0464,0.021,-137.256,19.634,-42.134,1.0862,100830.18
-0.8921,-0.0928,-0.0605,-136.768,28.11,-38.72,0.8989,100829.54
-0.9253,-0.1387,-0.084,-130.366,0.915,-32.561,0.9394,100829.66
-1.0103,-0.1436,-0.1157,-117.805,-17.622,-27.195,1.0269,100829.27
-1.0117,-0.1343,-0.1694,-105.061,-20.61,-28.659,1.0346,100829.33
-1.0098,-0.1382,-0.1831,-102.317,-26.159,-31.768,1.0355,100829.77
-1.0049,-0.1118,-0.1821,-107.195,-26.463,-31.28,1.0274,100830.33
-0.9556,-0.0605,-0.2148,-109.939,-15.305,-24.512,0.9813,100830.14
-0.938,-0.043,-0.23,-104.146,-7.683,-14.695,0.9667,100831.0
-0.9243,-0.0718,-0.2466,-90.366,-7.378,-8.415,0.9593,100830.54
-0.9233,-0.1099,-0.2632,-73.841,-10.427,-5.183,0.9664,100830.3
-0.9395,-0.1226,-0.2866,-61.28,-10.732,-2.073,0.9898,100830.86
-0.9629,-0.1064,-0.3252,-51.524,-6.951,0.671,1.0219,100831.27
-0.9902,-0.0928,-0.3569,-41.22,-2.317,3.293,1.0567,100831.2
-0.9883,-0.0977,-0.3608,-30.671,4.695,7.439,1.0566,100830.79
-0.9771,-0.1221,-0.3428,-20.793,10.549,12.866,1.0426,100830.6
-1.0791,-0.1455,-0.2539,-9.207,8.293,20.488,1.1181,100830.71
-1.2544,-0.1128,-0.1406,3.049,8.963,27.5,1.2673,100830.08
-1.1621,-0.063,-0.1108,17.195,9.329,15.122,1.1691,100830.81
-0.9678,0.0283,-0.0737,25.0,1.646,-7.378,0.971,100830.27
-0.9272,0.0791,-0.02,24.512,8.049,-10.549,0.9308,100829.49
-0.9727,0.124,-0.0503,18.049,10.793,4.451,0.9818,100829.05
-1.0122,0.1719,-0.1338,10.122,-4.634,13.963,1.0354,100829.69
-0.9819,0.144,-0.1528,5.976,-18.415,16.585,1.0041,100830.52
-0.8887,0.0684,-0.1797,-0.732,-15.915,15.183,0.9092,100830.54
-0.8687,0.0107,-0.1875,-8.415,-9.634,16.159,0.8887,100830.54
-0.9233,-0.001,-0.2075,-13.72,-7.927,18.415,0.9464,100829.94
-0.9775,0.0303,-0.2231,-16.037,-7.622,14.085,1.0031,100830.59
-0.9922,0.0591,-0.2354,-18.293,-5.305,5.305,1.0214,100830.45
-0.9688,0.0796,-0.2354,-21.524,-1.646,-2.256,1.0001,100830.62
-0.9429,0.085,-0.2471,-23.476,2.012,-5.854,0.9784,100829.97
-0.9512,0.082,-0.2324,-23.476,4.817,-6.463,0.9826,100830.48
-0.9858,0.082,-0.2329,-22.683,7.439,-7.683,1.0163,100830.85
-1.0166,0.0737,-0.2744,-22.195,9.085,-8.963,1.0556,100831.88
-1.0283,0.0889,-0.3696,-22.134,7.012,-10.732,1.0963,100831.82
-0.9868,0.1147,-0.4429,-18.902,5.366,-11.402,1.0877,100831.27
-1.0527,0.1211,-0.332,-10.488,3.963,-4.512,1.1105,100831.59
-1.3745,0.1006,0.0361,0.915,6.707,1.768,1.3787,100831.82
-1.189,0.0737,-0.0068,-6.402,21.951,-12.256,1.1913,100831.5
-0.7646,-0.0215,-0.0503,-10.488,26.646,-14.512,0.7666,100830.91
-1.0947,0.0347,-0.0161,-1.89,-12.927,-6.037,1.0954,100831.2
-0.9995,0.0288,-0.1196,-6.707,-9.695,-9.878,1.0071,100830.91
-0.9341,0.04,-0.1382,-2.805,-14.817,4.329,0.9451,100830.73
-0.895,0.04,-0.1558,2.805,-16.28,11.098,0.9094,100831.2
-0.8882,0.0215,-0.2129,7.256,-9.268,7.561,0.9136,100830.82
-0.9609,-0.0088,-0.2041,8.537,-3.963,9.573,0.9824,100830.63
-0.9805,-0.0098,-0.2007,5.488,4.085,13.354,1.0008,100830.37
-0.9443,0.001,-0.2524,3.476,9.329,16.22,0.9775,100830.43
-0.9429,0.0068,-0.3721,5.427,10.732,17.134,1.0137,100830.86
-1.0269,-0.0527,-0.2817,18.11,25.061,14.329,1.0661,100831.29
-1.126,-0.0303,-0.2158,27.195,26.524,11.463,1.1469,100831.26
-1.0029,0.0439,-0.3765,21.646,21.768,10.854,1.0722,100831.57
-0.9844,0.0405,-0.332,18.598,17.195,21.951,1.0397,100831.82
-1.1123,0.0371,-0.2974,12.744,2.195,36.098,1.152,100831.41
-1.272,0.082,-0.1074,21.037,1.22,40.915,1.2791,100832.09
-1.0864,0.1968,-0.085,24.146,21.159,24.817,1.1074,100831.27
-0.8911,0.2681,-0.1411,18.354,34.817,9.573,0.9412,100831.14
-0.98,0.2183,-0.022,17.683,17.378,14.634,1.0042,100831.02
-0.9658,0.1689,-0.0195,13.841,-4.573,22.195,0.9807,100831.05
-0.8647,0.1494,-0.2329,8.476,-15.671,16.22,0.9079,100831.12
-0.7944,0.1191,-0.2495,16.28,-32.866,3.659,0.8412,100830.9
-0.8296,0.1201,-0.2627,13.415,-29.695,-0.427,0.8784,100830.86
-0.9561,0.1484,-0.2554,7.439,-15.732,-3.476,1.0006,100831.43
-0.9961,0.1831,-0.2578,1.463,-3.72,-11.22,1.0451,100831.12
-0.9331,0.1753,-0.2754,-6.707,6.159,-16.037,0.9886,100831.99
-0.8828,0.1401,-0.2896,-14.024,13.476,-15.183,0.9396,100831.69
-0.8755,0.1323,-0.2808,-18.415,19.146,-12.317,0.9289,100830.34
-0.9199,0.1328,-0.2876,-17.988,15.854,-13.537,0.9729,100830.17
-0.9595,0.1221,-0.3154,-12.439,6.098,-15.427,1.0173,100830.69
-0.9795,0.1079,-0.3359,-4.573,-9.512,-16.707,1.0411,100830.81
-0.9707,0.0972,-0.4253,-0.976,-23.537,-22.073,1.0642,100830.27
-0.9448,0.0996,-0.4902,-2.927,-18.232,-27.317,1.0691,100830.26
-0.9922,0.125,-0.437,-7.378,-5.793,-24.756,1.0913,100830.49
-1.1665,0.1733,-0.2773,-11.22,-3.354,-16.829,1.2115,100830.88
-1.3477,0.1777,-0.1221,-18.049,-10.305,-8.537,1.3648,100830.2
-1.019,0.1465,-0.1284,-22.195,15.305,-6.098,1.0375,100830.57
-0.7666,0.0615,-0.0771,-12.378,31.646,-4.39,0.7729,100831.05
-0.9019,0.0312,-0.0107,-3.232,13.415,1.159,0.9025,100830.92
-0.9536,0.0952,-0.0845,3.598,-2.744,1.22,0.9621,100830.95
-0.9707,0.103,-0.1377,10.061,-13.415,-0.061,0.9858,100831.36
-0.9546,0.0952,-0.1602,10.976,-24.878,3.902,0.9726,100832.02
-0.8994,0.0757,-0.2148,10.244,-29.817,8.171,0.9278,100831.55
-0.9272,0.0498,-0.2769,11.646,-24.695,7.744,0.969,100830.7
-0.9639,0.0293,-0.2896,17.5,-9.329,9.512,1.0068,100830.03
-0.9717,0.0361,-0.2646,26.768,3.963,11.524,1.0077,100830.91
-0.9614,0.041,-0.2729,32.683,3.963,8.415,1.0003,100831.67
-0.9331,0.0205,-0.3003,35.61,1.22,5.61,0.9805,100831.3
-0.9468,-0.0059,-0.3057,37.012,2.073,6.646,0.9949,100831.0
-0.9937,-0.0073,-0.292,36.768,7.073,9.207,1.0357,100831.04
-1.0132,0.0298,-0.3047,34.817,12.134,10.793,1.0584,100831.05
-1.0278,0.0488,-0.3403,31.341,4.878,11.89,1.0838,100830.48
-1.0386,0.0503,-0.3628,29.39,-9.878,16.524,1.1013,100830.36
-1.2153,0.0425,-0.2319,36.037,-17.744,23.659,1.238,100830.68
-1.2461,0.0723,-0.1255,43.354,0.183,17.683,1.2545,100830.31
-0.9561,0.1665,-0.0898,43.476,23.78,-3.598,0.9746,100830.13
-0.8218,0.1538,-0.0356,37.805,28.659,-7.317,0.8368,100830.0
-0.9814,0.1348,-0.0488,33.232,-19.085,17.805,0.9919,100830.62
-1.0063,0.0996,-0.1616,28.598,-50.854,7.683,1.0241,100830.59
-0.9014,0.0239,-0.2329,18.841,-55.183,-2.195,0.9313,100831.09
-0.8633,-0.0039,-0.2832,2.866,-43.232,-0.915,0.9086,100831.34
-0.8877,0.0605,-0.2529,-12.561,-23.11,2.378,0.925,100830.54
-0.8867,0.1421,-0.21,-18.049,-10.488,-2.012,0.9222,100830.45
-0.9512,0.1382,-0.2358,-17.012,-13.598,-7.744,0.9897,100830.02
-1.0088,0.0693,-0.251,-13.963,-13.293,-6.037,1.0419,100830.16
-1.0615,0.0273,-0.2378,-11.402,-3.049,-2.927,1.0882,100829.9
-1.0386,0.0176,-0.2412,-11.585,10.915,-10.488,1.0664,100830.31
-0.9971,0.0273,-0.3008,-18.293,22.134,-17.744,1.0418,100831.0
-1.0459,0.0513,-0.314,-26.28,25.122,-15.305,1.0932,100831.13
-1.0923,0.0605,-0.3315,-30.244,20.854,-20.732,1.1431,100831.88
-1.1396,0.0957,-0.2827,-32.439,14.634,-31.22,1.1781,100832.03
-1.2783,-0.0005,-0.0259,-29.146,6.585,-22.134,1.2786,100830.93
-1.1221,0.021,0.0215,-26.28,21.585,-24.329,1.1225,100830.98
-0.8335,-0.0366,-0.0684,-20.732,34.085,-18.902,0.8371,100830.63
-0.8794,-0.1006,0.001,-10.305,15.793,-5.061,0.8851,100830.62
-1.0254,-0.0249,0.0908,-7.744,-1.707,-4.634,1.0297,100830.61
-0.9546,0.0151,-0.1147,-21.646,-0.427,-5.366,0.9616,100830.74
-0.8462,0.0142,-0.1938,-15.854,-28.171,2.134,0.8682,100831.44
-0.8359,-0.0039,-0.1392,-8.537,-56.098,4.451,0.8475,100831.23
-0.8623,-0.042,-0.2705,-8.598,-45.915,1.829,0.9047,100831.3
-0.9429,-0.0933,-0.2744,-3.415,-28.537,8.963,0.9864,100831.16
-1.0273,-0.0923,-0.2876,-4.39,-8.171,15.793,1.0708,100831.5
-1.0283,-0.0557,-0.2656,-5.305,7.805,13.78,1.0635,100831.77
-0.9937,-0.0435,-0.2461,-5.0,16.89,8.537,1.0246,100832.21
-1.0,-0.0527,-0.2222,-3.171,17.622,8.537,1.0257,100831.81
-1.0381,-0.0591,-0.2285,-1.646,13.354,12.744,1.0646,100831.51
-1.0581,-0.0527,-0.2905,-0.549,1.341,14.39,1.0985,100831.3
-1.1602,-0.0703,-0.3501,1.646,-8.232,13.659,1.2139,100829.89
-1.376,-0.0562,-0.0088,12.622,-4.329,14.939,1.3771,100829.7
-1.2183,0.0864,0.1313,4.634,23.963,13.293,1.2284,100829.8
-0.9058,0.1587,0.1099,-5.0,28.659,4.268,0.9261,100829.89
-0.9023,0.1299,0.1392,-9.451,2.561,4.939,0.9222,100829.34
-0.8882,0.1138,0.0112,-8.841,-17.134,11.524,0.8955,100830.15
-0.8682,0.0718,-0.0845,6.707,-37.5,8.11,0.8752,100830.02
-0.8887,0.0332,-0.1416,12.988,-47.561,-6.159,0.9005,100830.3
-0.917,0.0366,-0.167,3.354,-34.146,-8.963,0.9328,100831.25
-0.9595,0.0986,-0.1138,-11.646,-12.683,-1.646,0.9712,100830.47
-0.9756,0.1489,-0.127,-25.427,-0.915,-1.098,0.995,100831.61
-0.9712,0.1479,-0.1963,-30.61,-0.549,-3.11,1.0018,100831.97
-0.9482,0.0996,-0.2314,-31.159,2.561,-4.024,0.9811,100831.25
-0.9683,0.0957,-0.2319,-26.951,9.573,-4.024,1.0002,100831.56
-0.9985,0.145,-0.2212,-20.0,15.854,-5.427,1.033,100831.34
-1.0049,0.1606,-0.2842,-15.488,23.659,-8.598,1.0566,100831.29
-0.9927,0.1582,-0.335,-11.22,26.22,-10.061,1.0595,100831.83
-1.0361,0.1606,-0.3193,-7.988,29.329,-12.195,1.0961,100832.38
-1.231,0.146,-0.0693,-3.476,25.427,-6.585,1.2415,100831.93
-1.4399,0.1089,-0.061,-1.098,36.951,4.695,1.4453,100831.61
-1.1548,-0.0366,-0.0854,13.171,27.5,3.902,1.1585,100830.88
-0.8384,-0.0977,0.1206,29.817,-9.39,0.427,0.8526,100831.42
-0.8003,-0.1318,0.1909,21.402,-14.634,-4.207,0.8332,100830.86
-0.8364,-0.1104,0.0781,-2.805,2.805,-9.146,0.8473,100831.18
-0.9375,-0.0498,-0.2041,-19.39,6.341,-2.866,0.9608,100831.05
-0.9463,-0.0293,-0.2305,-10.793,-28.415,4.024,0.9744,100830.81
-0.957,-0.0322,-0.2173,-4.146,-28.72,6.22,0.9819,100831.01
-0.9614,-0.042,-0.2456,-2.134,-7.805,1.829,0.9932,100831.28
-0.9346,-0.0532,-0.2271,-0.488,7.195,1.341,0.9632,100831.59
-0.9111,-0.0557,-0.2266,-2.195,8.232,6.037,0.9405,100831.59
-0.9209,-0.0317,-0.2705,-3.659,4.146,9.329,0.9603,100831.48
-0.9702,-0.0205,-0.314,0.427,7.5,12.683,1.02,100831.26
-1.0327,-0.0166,-0.2935,9.146,14.817,14.634,1.0737,100831.97
-1.0771,0.0049,-0.3062,16.524,20.122,13.354,1.1198,100831.62
-1.0894,0.0,-0.3975,17.5,17.622,18.598,1.1596,100831.72
-1.1929,-0.0391,-0.3057,23.537,4.39,28.78,1.232,100831.68
-1.3042,-0.0513,-0.1152,25.244,6.707,29.695,1.3103,100831.52
-1.1152,-0.0146,-0.022,16.341,15.793,12.378,1.1155,100831.41
-0.8779,0.0845,-0.0269,-1.098,27.744,-4.207,0.8824,100830.95
-0.8667,0.1064,-0.022,-20.061,25.305,-4.512,0.8735,100830.63
-0.958,0.0806,-0.0005,-27.317,10.976,-1.951,0.9614,100830.98
-0.9473,0.0576,-0.0889,-31.463,-10.915,-3.78,0.9532,100831.24
-0.8926,0.0342,-0.166,-35.854,-37.256,-8.78,0.9085,100831.56
-0.8672,0.0317,-0.2378,-45.061,-44.146,-12.012,0.8998,100830.62
-0.9521,0.0562,-0.2827,-54.695,-30.915,-9.817,0.9948,100830.85
-1.0132,0.083,-0.2334,-61.585,-0.732,-9.573,1.043,100831.91
-0.9634,0.0977,-0.2114,-65.427,19.207,-15.366,0.9911,100831.67
-0.9375,0.0854,-0.2046,-63.963,18.11,-16.951,0.9634,100831.77
-0.9395,0.0752,-0.2188,-62.134,16.098,-16.707,0.9675,100831.7
-0.9712,0.0591,-0.2393,-58.476,13.354,-19.085,1.002,100831.64
-1.0264,0.0708,-0.2666,-54.451,13.72,-18.476,1.0628,100831.1
-1.0439,0.0596,-0.3193,-52.378,15.61,-16.28,1.0933,100832.04
-1.0312,0.022,-0.3872,-54.146,12.012,-17.5,1.1018,100832.49
-1.0601,-0.019,-0.4033,-58.293,8.72,-20.183,1.1344,100831.86
-1.1655,-0.0371,-0.2349,-61.341,8.171,-19.512,1.1895,100831.5
-1.2402,0.0288,-0.0278,-66.159,7.866,-18.902,1.2409,100831.36
-1.0142,0.0527,-0.0537,-75.854,20.732,-26.341,1.0169,100831.13
-0.8589,-0.0317,-0.0122,-75.549,25.854,-28.171,0.8596,100831.3
-0.8823,-0.0605,0.0112,-78.415,14.024,-27.378,0.8845,100830.59
-0.9766,-0.0454,-0.0112,-82.927,1.402,-29.329,0.9777,100830.17
-1.0352,-0.0317,-0.0947,-88.11,-9.085,-27.622,1.04,100829.62
-0.9751,0.0083,-0.1587,-93.11,-28.659,-20.061,0.988,100829.23
-0.8691,0.0107,-0.1855,-91.28,-41.951,-11.463,0.8888,100829.63
-0.8862,0.0103,-0.2578,-83.11,-41.585,-8.598,0.923,100830.3
-0.937,-0.0107,-0.3154,-67.561,-27.317,-4.878,0.9887,100830.58
-0.9604,-0.0381,-0.3086,-50.915,0.427,-0.427,1.0095,100830.14
-0.9541,-0.0479,-0.2822,-38.841,20.0,1.463,0.9961,100830.29
-1.0083,-0.0278,-0.2378,-31.098,27.744,3.171,1.0363,100829.68
-1.0356,0.0171,-0.272,-26.098,32.988,4.817,1.0709,100830.09
-1.0049,-0.0005,-0.2998,-19.085,20.122,4.878,1.0487,100830.4
-1.0645,-0.0479,-0.3296,-14.451,3.78,18.659,1.1153,100830.38
-1.2676,-0.0576,-0.1304,0.366,-18.232,33.963,1.2756,100830.85
-1.2065,0.0083,-0.0146,-3.11,14.634,22.195,1.2067,100830.72
-0.875,0.0459,-0.0996,-9.878,44.39,-1.829,0.8818,100831.48
-0.8413,0.0332,-0.0361,-19.695,31.89,-10.305,0.8427,100831.67
-1.0645,0.0298,-0.0361,-33.78,33.476,-5.427,1.0655,100831.56
-1.0264,0.0303,-0.0347,-36.585,27.134,-11.707,1.0274,100831.82
-0.9033,0.0044,-0.1079,-52.256,-2.744,-21.037,0.9098,100830.95
-0.8423,-0.0137,-0.1533,-71.829,-30.305,-26.89,0.8562,100831.01
-0.8823,0.0024,-0.2139,-85.61,-34.939,-25.122,0.9079,100831.8
-1.0073,0.063,-0.2144,-93.841,-18.232,-19.39,1.0318,100831.52
-1.0181,0.1069,-0.2261,-99.207,1.037,-18.902,1.0483,100830.93
-0.9551,0.1191,-0.2417,-99.329,11.829,-23.354,0.9924,100831.49
-0.9429,0.1099,-0.2441,-91.585,20.854,-22.805,0.9801,100831.77
-0.9663,0.1025,-0.2363,-81.646,31.951,-19.817,1.0001,100831.49
-0.981,0.0659,-0.2622,-74.878,34.085,-17.317,1.0175,100831.17
-1.0049,0.0229,-0.3022,-69.573,21.159,-20.061,1.0496,100831.18
-1.061,-0.0435,-0.3818,-70.732,10.366,-26.829,1.1285,100830.95
-0.979,-0.022,-0.4863,-78.232,10.488,-43.354,1.0934,100832.2
-1.166,-0.0376,-0.2485,-70.488,17.195,-40.183,1.1928,100831.31
-1.3813,-0.0762,-0.0352,-70.305,36.463,-37.317,1.3839,100831.27
-1.0264,-0.0483,-0.1323,-76.89,56.341,-49.695,1.036,100829.66
-0.7671,-0.0977,-0.1201,-74.634,47.073,-43.415,0.7826,100829.55
-0.7959,-0.1318,-0.0371,-64.878,33.902,-36.524,0.8076,100829.61
-0.8379,-0.1118,-0.0376,-58.415,37.256,-42.805,0.8462,100829.03
-0.8247,-0.103,-0.1587,-72.012,33.415,-38.841,0.8461,100829.45
-1.0952,0.0059,-0.3945,-71.89,3.415,-21.646,1.1641,100828.91
-1.0396,-0.019,-0.3843,-48.415,-31.037,-28.902,1.1085,100829.5
-0.874,-0.0986,-0.2983,-44.085,-51.524,-26.22,0.9288,100829.71
-0.8594,-0.0981,-0.3286,-47.805,-58.049,-19.268,0.9253,100829.98
-0.8623,-0.0776,-0.4067,-48.598,-57.866,-16.341,0.9566,100830.45
-0.8813,-0.0654,-0.4561,-46.098,-51.22,-8.72,0.9945,100830.67
-0.9585,-0.0806,-0.4497,-41.951,-33.902,1.585,1.0618,100830.83
-0.9941,-0.0908,-0.4185,-38.476,-12.805,7.5,1.0824,100830.7
-1.0234,-0.0654,-0.4062,-34.085,3.963,9.634,1.1031,100830.74
-1.0215,-0.041,-0.4165,-30.244,7.134,11.341,1.1039,100830.91
-1.0186,-0.0312,-0.4336,-24.878,-1.829,16.341,1.1074,100830.89
-1.2412,-0.0928,-0.252,-10.305,-1.098,32.256,1.2699,100831.13
-1.3081,-0.0747,-0.0415,-6.646,17.012,27.622,1.3109,100831.3
-0.8589,-0.0132,-0.1748,-16.159,32.622,-1.463,0.8766,100831.44
-0.8096,-0.0249,-0.1333,-12.317,33.963,-4.512,0.8208,100831.55
-1.0757,-0.0186,-0.0068,-5.427,15.244,7.561,1.0759,100831.99
-0.9531,0.0166,-0.1748,-17.317,-33.72,-4.329,0.9692,100831.45
-0.8169,0.0039,-0.2065,-23.78,-57.927,-11.28,0.8426,100831.41
-0.8193,0.0225,-0.2915,-38.171,-53.72,-8.293,0.8699,100830.65
-0.9263,0.0503,-0.3374,-53.293,-23.232,0.122,0.9871,100830.34
-0.9785,0.0928,-0.2407,-58.11,2.317,2.134,1.012,100830.58
-0.9839,0.1201,-0.2837,-59.085,2.378,-4.39,1.031,100831.11
-0.9639,0.0889,-0.3164,-52.927,2.256,-7.805,1.0184,100831.38
-1.0156,0.0625,-0.2495,-38.963,8.598,-8.537,1.0477,100830.74
-1.0029,0.0923,-0.2256,-25.427,15.244,-13.232,1.0321,100830.38
-0.9287,0.1011,-0.3506,-17.378,12.744,-14.512,0.9978,100829.76
-0.9482,0.0615,-0.395,-7.744,10.915,-7.683,1.0291,100829.89
-1.063,0.0488,-0.4116,-1.28,10.915,-7.378,1.1409,100830.72
-1.2427,0.0781,-0.2861,0.793,14.146,-12.195,1.2776,100830.6
-1.3511,0.0791,-0.168,-9.207,25.0,-13.476,1.3638,100830.75
-1.0103,0.0288,-0.0586,-16.402,19.878,-12.134,1.0124,100830.51
-0.7578,-0.0483,0.0371,-17.988,4.451,-9.817,0.7603,100830.2
-0.8311,-0.0957,0.0767,-13.902,-5.854,-5.976,0.8401,100830.56
-0.9604,-0.0396,0.1064,-16.098,-13.049,-5.549,0.9671,100830.47
-1.0664,0.0142,-0.1719,-35.976,-9.573,1.341,1.0803,100830.89
-1.0376,0.0513,-0.2969,-30.061,-42.134,6.707,1.0805,100830.43
-0.9043,0.0337,-0.3706,-17.5,-31.768,2.5,0.9779,100830.83
-0.8623,-0.019,-0.2417,0.427,-3.72,-3.659,0.8957,100830.87
-0.9009,-0.0425,-0.1812,4.146,5.915,-1.098,0.9199,100830.79
-0.9521,-0.0591,-0.2104,0.061,-0.244,7.561,0.9769,100830.94
-0.9937,-0.0439,-0.2656,-1.402,-7.256,10.427,1.0295,100830.35
-0.9771,-0.0034,-0.29,0.976,-2.317,5.366,1.0192,100830.39
-0.9639,0.0083,-0.2261,0.732,2.439,1.524,0.9901,100830.41
-1.002,-0.002,-0.1963,-2.5,-1.524,3.354,1.021,100830.55
-0.9863,0.0078,-0.2725,-7.927,-5.854,6.646,1.0233,100829.8
-0.9995,-0.0059,-0.4014,-10.915,-8.659,10.549,1.0771,100829.84
-1.1323,0.002,-0.4912,-3.415,3.659,15.061,1.2343,100829.16
-1.2686,-0.002,-0.2075,22.256,21.89,15.854,1.2854,100828.5
-1.2632,-0.0103,0.125,39.939,-11.341,4.146,1.2694,100828.52
-1.1167,0.0669,0.0156,16.159,0.061,-6.89,1.1188,100828.85
-0.7124,0.0918,-0.1387,-7.317,8.11,-12.5,0.7316,100829.09
-0.772,0.1157,0.0195,-1.768,3.415,3.171,0.7808,100828.54
-0.9429,0.1484,0.021,7.439,6.341,12.805,0.9547,100829.1
-1.0703,0.146,-0.0938,17.744,-15.854,11.768,1.0843,100828.77
-1.0649,0.1006,-0.1919,24.451,-35.427,4.512,1.0868,100829.88
-0.9683,0.0557,-0.2432,21.463,-20.366,1.463,0.9999,100830.21
-0.8984,0.0317,-0.2202,7.378,6.707,3.72,0.9256,100831.21
-0.8306,0.0708,-0.1172,-2.561,4.207,3.78,0.8418,100830.36
-0.8838,0.1211,-0.1436,-8.11,-15.793,-1.768,0.9035,100830.59
-0.9575,0.1162,-0.2559,-10.61,-25.305,-5.122,0.9979,100830.28
-0.9922,0.085,-0.2817,-11.22,-14.878,-2.683,1.0349,100830.41
-1.0166,0.0654,-0.2339,-9.39,-2.622,-3.232,1.0452,100830.62
-1.0083,0.0659,-0.2441,-7.073,6.28,-8.049,1.0395,100830.91
-0.9956,0.0796,-0.3013,-4.695,15.183,-10.061,1.0432,100831.12
-1.0659,0.1196,-0.3638,-4.329,23.293,-10.61,1.1326,100831.75
-1.1021,0.0962,-0.3472,-3.537,27.012,-17.378,1.1594,100831.25
-1.2666,0.0977,-0.1543,-1.707,40.61,-10.976,1.2797,100831.73
-1.2529,0.1006,0.0166,4.329,36.159,-6.159,1.2571,100830.6
-0.8979,0.0327,-0.0962,1.159,30.366,-9.695,0.9037,100830.12
-0.7852,-0.0742,-0.0601,5.366,10.366,-5.732,0.7909,100829.79
-0.8594,-0.0723,0.0972,10.915,-10.0,-4.329,0.8679,100830.52
-0.9419,0.0005,0.0327,-7.5,-0.732,-2.683,0.9425,100831.55
-1.042,0.0591,-0.1606,-22.805,-20.183,4.512,1.056,100831.57
-1.0264,0.0513,-0.1694,-21.646,-52.134,9.634,1.0415,100831.84
-0.9448,-0.0171,-0.3218,-17.012,-43.598,6.89,0.9983,100830.83
-0.9536,-0.0493,-0.2949,-2.622,-14.268,3.293,0.9994,100830.44
-0.917,-0.0449,-0.1323,5.854,6.341,3.476,0.9276,100829.88
-0.938,-0.0522,-0.147,7.439,-3.415,4.146,0.9509,100829.36
-0.9487,-0.0176,-0.2451,7.622,-14.085,2.317,0.98,100829.68
-0.9863,0.0024,-0.292,9.878,-8.902,2.927,1.0286,100830.33
-1.0669,0.0034,-0.2476,12.561,3.232,5.244,1.0952,100831.06
-1.0913,0.0171,-0.2891,10.915,5.549,6.463,1.1291,100830.36
-1.0786,0.022,-0.3774,7.622,6.646,11.159,1.143,100830.57
-1.25,0.0044,-0.2559,11.646,13.659,19.451,1.2759,100830.63
-1.2842,0.0142,-0.0396,17.927,19.573,16.768,1.2849,100830.41
-0.9917,0.0962,-0.0381,15.976,30.854,2.988,0.9971,100830.02
-0.832,0.1279,-0.0024,14.329,37.805,-3.78,0.8418,100829.6
-0.9229,0.1123,0.0791,14.39,26.463,3.72,0.933,100829.19
-0.9595,0.1089,0.0186,16.402,1.951,9.024,0.9658,100829.45
-0.9888,0.084,-0.0718,18.293,-34.268,4.512,0.9949,100829.3
-0.9365,0.0728,-0.2671,2.073,-5.793,3.476,0.9766,100829.3
-0.9497,0.105,-0.189,-5.976,12.5,-0.366,0.974,100829.55
-0.9438,0.1099,-0.2051,-10.61,3.659,-6.768,0.9721,100829.88
-0.9624,0.0757,-0.2251,-13.171,-2.012,-4.878,0.9913,100829.73
-0.9771,0.0693,-0.2412,-13.537,-1.89,-2.805,1.0088,100830.24
-0.9756,0.0923,-0.2651,-11.402,1.768,-6.585,1.0152,100829.55
-0.9609,0.1118,-0.2759,-8.11,8.963,-9.39,1.006,100829.63
-0.9785,0.1177,-0.3188,-6.28,10.915,-8.963,1.0359,100829.92
-1.0142,0.1152,-0.3823,-5.427,9.207,-9.695,1.0899,100829.42
-1.1558,0.1333,-0.3086,-4.207,12.622,-10.61,1.2037,100830.26
-1.3374,0.1216,-0.1255,-2.744,25.915,-6.22,1.3488,100830.89
-1.1904,0.0444,-0.106,-0.427,42.378,-6.585,1.196,100831.88
-0.8594,-0.0493,-0.0527,3.537,38.476,-5.976,0.8624,100830.39
-0.8164,-0.0898,-0.0054,6.402,16.037,-8.78,0.8214,100830.52
-0.9072,-0.0874,-0.0366,7.317,1.341,-13.598,0.9122,100830.72
-0.9829,-0.0308,-0.1021,6.037,-3.902,-6.768,0.9887,100830.88
-1.02,-0.0054,-0.1255,1.037,-26.768,4.39,1.0277,100830.87
-0.958,-0.019,-0.2002,-4.024,-45.793,6.829,0.9789,100831.23
-0.9082,-0.0552,-0.3037,-1.22,-40.488,3.598,0.9592,100830.64
-0.9326,-0.0752,-0.2783,5.366,-15.854,1.463,0.9762,100830.7
-0.9556,-0.0625,-0.2188,7.012,4.695,1.341,0.9823,100830.97
-0.9678,-0.0518,-0.1826,6.89,4.146,2.988,0.9862,100831.05
-0.9512,-0.0396,-0.2041,6.28,-2.927,5.854,0.9736,100830.88
-0.9663,-0.0488,-0.2979,5.793,-5.488,5.976,1.0123,100831.13
-1.0269,-0.0571,-0.2905,6.22,2.5,7.317,1.0687,100831.41
-1.0439,-0.0415,-0.3037,3.963,6.524,8.293,1.088,100831.15
-1.0264,-0.0083,-0.3525,-0.915,2.927,9.268,1.0853,100830.73
-1.0195,0.02,-0.394,-4.817,-1.037,12.683,1.0932,100829.43
-1.2266,0.0151,-0.2349,-0.854,-0.854,20.183,1.2489,100829.77
-1.3794,-0.0005,-0.0742,1.28,14.756,22.683,1.3814,100829.08
-0.9819,0.0737,-0.0928,-1.585,33.049,7.683,0.9891,100829.28
-0.77,0.0747,0.0098,-2.622,26.159,2.622,0.7737,100828.59
-0.8472,0.0547,0.0483,-2.012,12.988,6.402,0.8503,100828.54
-0.9629,0.0752,-0.04,7.134,0.366,11.159,0.9667,100828.28
-1.0376,0.0713,-0.1025,16.159,-25.854,7.012,1.0451,100827.93
-0.999,0.0161,-0.1504,17.317,-48.902,-5.488,1.0104,100829.27
-0.8599,0.0112,-0.2505,10.0,-48.78,-11.28,0.8957,100829.54
-0.9028,0.0659,-0.292,-2.073,-27.805,-3.354,0.9512,100830.34
-0.9814,0.1006,-0.2192,-16.098,-4.451,-1.098,1.0107,100830.1
-0.9756,0.1055,-0.2026,-24.268,4.512,-6.463,1.002,100829.2
-0.9536,0.0742,-0.2227,-23.476,2.744,-7.134,0.9821,100829.47
-0.9492,0.0601,-0.2329,-19.085,2.073,-4.939,0.9792,100829.33
-0.979,0.0874,-0.2368,-13.171,2.317,-6.402,1.011,100829.7
-1.0005,0.1143,-0.2397,-7.195,5.488,-8.171,1.0351,100829.73
-1.0073,0.0884,-0.2686,-3.049,7.683,-6.037,1.0462,100829.41
-0.999,0.0435,-0.3467,-1.951,8.232,-4.329,1.0584,100830.62
-1.0547,0.0488,-0.3896,-4.024,15.732,-7.622,1.1254,100831.05
-1.3447,0.0986,-0.0181,-13.415,30.732,-6.646,1.3485,100831.46
-0.98,0.0386,-0.0605,-12.439,45.061,-7.866,0.9826,100831.2
-0.7593,-0.0234,-0.022,-8.171,28.841,-3.476,0.76,100831.73
-0.8472,-0.0347,0.0107,-7.988,3.11,-2.683,0.8479,100831.29
-0.9575,0.0093,-0.0596,-9.085,-7.866,-3.354,0.9594,100831.08
-1.0664,0.0254,-0.1475,-9.634,-19.878,1.524,1.0769,100830.81
-1.0791,0.0239,-0.1519,-6.951,-34.878,7.622,1.09,100831.07
-0.9141,0.0176,-0.2554,-3.72,-33.11,3.78,0.9492,100830.05
-0.8682,-0.022,-0.2896,0.854,-19.634,1.646,0.9154,100829.77
-0.9121,-0.0479,-0.2319,2.561,-0.427,5.0,0.9424,100830.52
-0.9438,-0.0327,-0.2114,4.024,9.451,7.134,0.9678,100831.32
-0.9624,-0.0171,-0.2104,6.28,4.817,7.683,0.9853,100831.45
-0.9722,-0.0093,-0.2471,7.134,-0.61,5.793,1.0031,100830.45
-0.9951,-0.0063,-0.2812,5.427,1.037,3.78,1.0341,100831.03
-1.0161,0.0,-0.2852,2.012,8.293,3.963,1.0554,100830.73
-1.0146,0.0122,-0.2905,-2.134,12.073,5.0,1.0555,100831.38
-0.998,0.0332,-0.3491,-7.622,5.0,7.256,1.0579,100830.88
-1.0205,0.0469,-0.3555,-10.549,-2.134,11.098,1.0817,100830.15
-1.1064,0.0493,-0.2905,-7.683,-4.939,15.244,1.145,100829.45
-1.1768,0.0415,-0.2061,-1.22,-3.293,16.646,1.1954,100829.31
-1.0737,0.0166,-0.1431,0.183,5.183,11.22,1.0833,100830.56
-0.9629,0.0151,-0.0488,-3.537,20.244,3.841,0.9642,100830.64
-0.8984,0.0713,-0.0229,-3.476,29.695,1.037,0.9016,100830.44
-0.9844,0.0991,0.0229,4.756,19.207,3.841,0.9896,100829.55
-1.0483,0.1064,-0.0273,5.427,-4.634,2.622,1.0541,100829.13
-0.9927,0.0596,-0.1714,-0.061,-32.439,-2.073,1.0091,100829.43
-0.8877,0.0,-0.2095,-4.817,-36.463,-4.573,0.9121,100829.78
-0.8442,0.0142,-0.2446,-13.415,-26.098,-5.366,0.8791,100830.41
-0.917,0.064,-0.2119,-24.329,-14.878,-5.122,0.9433,100830.87
-0.9507,0.1001,-0.1899,-35.976,-7.012,-5.61,0.9746,100831.6
-0.9507,0.0986,-0.187,-41.707,-9.085,-4.695,0.9739,100831.66
-0.9609,0.0625,-0.2305,-44.085,-13.78,-2.988,0.9902,100830.47
-1.0034,0.041,-0.2993,-43.11,-10.793,-2.927,1.0479,100830.44
-1.0596,0.0488,-0.3037,-38.963,0.0,-6.22,1.1033,100830.91
-1.0298,0.0469,-0.2681,-33.537,13.232,-12.927,1.0651,100831.02
-0.9526,0.0332,-0.2393,-31.402,17.622,-19.146,0.9828,100830.97
-0.9688,0.0464,-0.2178,-34.146,14.451,-20.854,0.994,100830.09
-1.3862,0.1187,-0.0698,-46.89,9.878,-9.268,1.3931,100830.41
-1.1743,0.041,-0.0742,-51.098,24.024,-13.415,1.1774,100831.24
-0.8613,-0.0591,-0.0107,-43.11,25.305,-11.463,0.8634,100831.12
-0.8091,-0.0864,0.0391,-37.561,16.707,-14.878,0.8146,100830.83
-0.8701,-0.0967,0.043,-43.72,5.732,-25.183,0.8765,100830.84
-0.9976,-0.0669,-0.0337,-56.341,-7.622,-20.244,1.0004,100830.97
-1.0786,-0.0415,-0.106,-67.256,-29.939,-4.817,1.0846,100831.05
-0.9946,-0.0161,-0.2031,-68.476,-37.927,0.366,1.0153,100831.11
-0.9297,-0.0137,-0.2544,-58.659,-26.463,-5.122,0.964,100830.32
-0.9307,-0.0483,-0.2119,-51.037,-4.634,-7.561,0.9557,100830.81
-0.9434,-0.0737,-0.168,-49.939,8.72,-3.415,0.961,100831.2
-0.9629,-0.0654,-0.145,-48.537,5.366,1.89,0.9759,100830.49
-0.9604,-0.0469,-0.1885,-44.085,-0.427,2.988,0.9799,100831.3
-0.9531,-0.0186,-0.2617,-35.915,-2.256,1.463,0.9886,100830.72
-0.9951,-0.0117,-0.2847,-26.463,4.39,5.671,1.0351,100830.62
-1.0088,0.0068,-0.2817,-16.829,12.5,11.646,1.0474,100830.21
-1.0557,-0.0073,-0.2866,-9.878,11.707,17.378,1.0939,100829.88
-1.2349,-0.0469,-0.2402,-6.22,6.22,23.78,1.2589,100829.88
-1.3965,-0.0522,-0.0693,-0.976,10.915,27.439,1.3992,100829.88
-1.1426,-0.0259,-0.0708,-1.402,25.671,8.293,1.1451,100829.52
-0.8276,0.0342,-0.0469,-11.159,26.951,-16.159,0.8297,100828.88
-0.7871,0.0747,0.0142,-24.756,24.695,-18.354,0.7908,100828.66
-0.8911,0.0801,0.0088,-29.634,24.817,-7.439,0.8947,100828.95
-1.0005,0.0952,-0.0166,-27.134,19.268,-3.415,1.0051,100829.66
-1.0884,0.0767,-0.0542,-29.573,-7.866,-8.902,1.0924,100829.61
-0.9277,0.0234,-0.1201,-38.902,-35.183,-14.878,0.9358,100829.42
-0.8696,0.0234,-0.2319,-51.951,-43.049,-10.366,0.9003,100829.3
-0.9868,0.0562,-0.2676,-60.671,-25.915,0.061,1.024,100829.33
-1.0332,0.1074,-0.2085,-66.585,6.098,-0.854,1.0595,100829.7
-0.9819,0.1196,-0.1602,-68.293,10.671,-7.927,1.0021,100829.5
-0.9531,0.0732,-0.168,-66.646,0.854,-7.378,0.9706,100829.33
-0.938,0.042,-0.2246,-62.988,-2.134,-5.061,0.9654,100829.95
-0.9702,0.0547,-0.2837,-56.037,0.366,-6.098,1.0123,100830.66
-1.0186,0.0752,-0.2852,-44.878,10.122,-7.5,1.0604,100830.71
-1.0498,0.0522,-0.271,-33.78,21.524,-9.329,1.0855,100830.38
-1.041,0.0088,-0.3125,-29.817,30.793,-13.963,1.0869,100830.37
-1.0166,-0.0229,-0.2935,-31.951,34.878,-18.659,1.0584,100829.87
-1.1665,0.0005,-0.2104,-41.098,30.732,-17.683,1.1853,100830.55
-1.3218,0.0688,-0.0303,-46.28,21.89,-16.89,1.3239,100831.38
-1.0532,0.0288,-0.0537,-49.451,21.159,-26.768,1.055,100830.88
-0.791,-0.0234,-0.0366,-46.768,10.732,-27.256,0.7922,100831.0
-0.7427,-0.0356,0.0015,-50.793,2.805,-25.732,0.7435,100830.48
-0.8853,-0.0254,-0.0122,-60.427,-1.829,-23.72,0.8857,100830.45
-1.0527,-0.0146,-0.0513,-68.902,-14.329,-16.402,1.0541,100831.19
-1.1108,0.001,-0.0972,-73.171,-35.549,-7.866,1.1151,100831.46
-0.9751,0.0176,-0.2168,-74.268,-44.573,-6.646,0.9991,100831.55
-0.9028,-0.0112,-0.2964,-68.171,-38.476,-6.402,0.9503,100830.76
-0.9189,-0.0493,-0.2583,-61.646,-18.659,-4.939,0.9558,100830.06
-0.9526,-0.0601,-0.2036,-57.866,0.061,-2.256,0.976,100830.38
-1.0054,-0.0381,-0.1782,-52.5,6.524,2.134,1.0218,100830.74
-0.9932,-0.0337,-0.1772,-43.354,2.5,2.073,1.0094,100830.06
-0.9258,-0.0288,-0.2285,-34.329,-2.195,2.195,0.954,100831.1
-1.0669,-0.0254,-0.2886,-22.866,-1.402,7.378,1.1055,100830.41
-1.1143,0.0063,-0.3638,-10.976,3.78,8.659,1.1722,100830.62
-1.1025,0.0127,-0.3823,-1.524,12.5,12.927,1.167,100830.31
-1.3193,-0.0527,-0.1025,3.049,19.939,22.134,1.3244,100830.2
-1.2573,-0.0327,0.0269,-5.854,42.439,16.768,1.258,100830.09
-0.8369,0.0415,-0.0015,-16.585,56.341,-0.549,0.8379,100830.77
-0.7573,0.0513,0.0547,-31.28,41.098,-3.72,0.761,100829.8
-0.9424,0.0396,0.0498,-42.683,17.317,3.049,0.9445,100830.17
-1.0635,0.0664,0.0254,-43.841,-10.183,5.122,1.0659,100829.84
-1.0171,0.0771,-0.2163,-51.28,-38.963,-5.427,1.0427,100828.97
-0.9209,0.0757,-0.3364,-57.5,-38.354,-10.854,0.9833,100829.9
-0.8892,0.0859,-0.2988,-73.902,5.0,-4.146,0.942,100829.88
-0.8848,0.1265,-0.1035,-75.488,26.341,-7.317,0.8997,100829.14
-0.9219,0.1709,-0.1318,-71.707,11.098,-13.963,0.9468,100828.94
-0.9053,0.1597,-0.1943,-65.61,-2.012,-15.305,0.9396,100829.03
-0.9297,0.1323,-0.2412,-59.634,-9.573,-12.073,0.9695,100828.96
-1.022,0.1196,-0.2852,-49.573,-9.512,-9.146,1.0677,100829.29
-1.0547,0.1069,-0.3311,-36.28,2.683,-9.573,1.1106,100829.53
-1.0391,0.0625,-0.3481,-24.878,14.39,-10.732,1.0976,100830.07
-1.0161,-0.0078,-0.3711,-20.061,19.573,-15.427,1.0818,100830.14
-0.9834,-0.0029,-0.3457,-25.122,22.317,-24.268,1.0424,100830.18
-1.1177,0.0659,-0.2075,-39.451,21.646,-24.268,1.1387,100829.96
-1.3833,0.1348,-0.0684,-53.171,11.463,-12.378,1.3915,100829.8
-1.1968,0.1421,-0.0684,-59.268,20.976,-11.341,1.2071,100829.55
-0.7695,0.0244,-0.0845,-52.988,26.159,-17.866,0.7745,100829.13
-0.7817,-0.0142,-0.0396,-39.329,12.683,-18.11,0.7829,100829.07
-0.8921,0.0249,-0.0796,-34.085,8.232,-19.146,0.896,100828.66
-0.9434,0.0439,-0.1216,-31.341,7.561,-14.756,0.9522,100828.95
-1.0254,0.0718,-0.165,-29.573,-6.341,-6.829,1.0411,100829.66
-0.9717,0.0439,-0.2568,-26.646,-24.085,-5.061,1.006,100829.81
-0.9038,-0.0039,-0.3345,-19.268,-25.976,-6.341,0.9637,100830.07
-0.9028,-0.0371,-0.2925,-12.256,-7.622,-5.976,0.9498,100829.88
-0.9067,-0.042,-0.2622,-10.915,11.098,-2.012,0.9448,100830.35
-0.9067,-0.0205,-0.2422,-11.402,14.451,2.988,0.9387,100830.46
-0.8965,-0.0024,-0.2881,-11.402,4.024,3.659,0.9416,100830.32
-0.9409,-0.0249,-0.3208,-7.378,-0.366,4.39,0.9944,100830.18
-1.0366,-0.0361,-0.3516,-1.951,1.28,4.268,1.0952,100829.59
-1.0718,-0.0083,-0.4165,-2.134,3.537,3.72,1.1499,100829.77
-1.0493,0.0054,-0.418,-7.744,2.439,11.463,1.1295,100829.91
-1.29,-0.0171,-0.2104,-8.476,5.976,25.549,1.3072,100829.28
-1.3081,0.0347,-0.0986,-8.293,29.634,19.268,1.3123,100829.54
-0.8047,0.1357,-0.1108,-14.512,34.39,-5.488,0.8235,100829.85
-0.8467,0.1191,-0.0649,-24.451,18.78,-5.122,0.8575,100829.58
-1.0693,0.0625,-0.085,-22.622,8.354,6.22,1.0745,100829.41
-1.0361,0.0908,-0.2031,-7.683,-9.085,6.768,1.0598,100828.54
-0.9404,0.0942,-0.2178,4.695,-33.476,-5.732,0.9699,100829.38
-0.834,0.0762,-0.2339,4.329,-36.585,-15.366,0.8695,100830.34
-0.8389,0.0854,-0.2847,-3.598,-23.232,-9.695,0.89,100829.85
-0.9243,0.1035,-0.2437,-13.963,-3.354,-4.695,0.9615,100830.31
-0.9478,0.1099,-0.2109,-23.171,6.89,-6.463,0.9771,100830.21
-0.9326,0.083,-0.2588,-27.805,-5.061,-7.073,0.9714,100829.87
-0.9678,0.0708,-0.2964,-25.61,-7.439,-7.073,1.0146,100830.2
-0.9683,0.083,-0.333,-19.512,-2.683,-8.354,1.0273,100830.71
-0.9888,0.0903,-0.3496,-13.902,3.841,-9.878,1.0526,100829.74
-1.0225,0.0811,-0.3975,-13.049,8.232,-11.524,1.1,100830.38
-1.0322,0.083,-0.4062,-14.573,10.305,-13.78,1.1124,100830.23
-1.2559,0.0903,-0.2158,-17.012,7.5,-8.963,1.2775,100830.62
-1.3667,0.1118,-0.0415,-18.415,10.183,-9.207,1.3719,100830.78
-0.9497,0.0532,-0.083,-14.146,32.134,-14.878,0.9548,100831.03
-0.7485,-0.0156,0.0039,-7.195,21.22,-7.866,0.7487,100830.59
-0.8794,-0.0005,0.0073,-10.366,-10.793,-5.244,0.8794,100830.39
-0.9419,0.0322,-0.1045,-15.488,-19.085,-8.049,0.9482,100830.13
-1.0122,0.0317,-0.1382,-14.939,-25.0,0.732,1.0221,100830.55
-0.9473,0.0249,-0.1895,-15.549,-32.5,8.537,0.9663,100830.48
-0.9297,0.0,-0.2485,-12.5,-32.256,9.573,0.9623,100830.3
-0.9741,-0.0366,-0.2676,-7.317,-16.037,7.622,1.0109,100830.29
-0.9741,-0.0254,-0.2339,-2.439,2.988,6.951,1.0021,100830.66
-0.9473,-0.0029,-0.2061,1.402,7.927,7.805,0.9694,100830.7
-0.9204,0.0166,-0.2212,4.756,4.268,8.354,0.9468,100829.62
-0.915,0.0244,-0.2729,9.329,0.61,9.085,0.9552,100830.63
-0.9766,0.0112,-0.29,14.268,2.256,10.793,1.0188,100831.16
-1.0283,0.0225,-0.2886,17.134,8.11,11.829,1.0683,100830.94
-1.0142,0.0576,-0.3311,16.829,9.39,10.671,1.0684,100831.02
-1.0049,0.0757,-0.377,14.573,6.463,12.073,1.0759,100831.83
-1.228,0.0581,-0.251,16.951,2.134,20.061,1.2548,100831.55
-1.4165,0.0449,-0.0835,19.939,11.159,25.61,1.4197,100830.86
-0.9966,0.0835,-0.0571,19.573,39.573,8.049,1.0017,100831.34
-0.7344,0.1021,-0.0283,15.183,41.22,-2.805,0.742,100831.57
-0.8975,0.0737,-0.0029,8.78,11.037,2.256,0.9005,100831.25
-1.0464,0.0874,-0.0713,10.915,-15.488,7.012,1.0524,100830.52
-1.0137,0.1279,-0.1836,14.39,-38.171,-0.61,1.0381,100831.3
-0.8955,0.1274,-0.2593,8.963,-44.939,-6.768,0.941,100830.7
-0.856,0.1128,-0.3291,-3.232,-25.915,0.183,0.924,100831.83
-0.9004,0.0986,-0.2422,-14.268,8.11,6.585,0.9376,100831.56
-0.9258,0.1211,-0.1802,-18.841,11.768,0.244,0.9509,100830.88
-0.9429,0.1152,-0.2119,-20.488,-2.805,-7.866,0.9732,100831.22
-0.9282,0.0967,-0.2651,-21.585,-8.598,-10.183,0.9702,100831.24
-0.9639,0.1016,-0.2905,-22.012,-5.244,-8.11,1.0118,100831.26
-1.0005,0.1094,-0.291,-17.317,4.146,-8.72,1.0477,100831.73
-0.9829,0.082,-0.312,-9.024,9.878,-9.329,1.0345,100830.52
-1.0073,0.0161,-0.3521,-1.951,7.561,-8.598,1.0672,100830.94
-1.0059,-0.0239,-0.4058,0.244,7.378,-15.122,1.0849,100831.15
-1.0552,0.0273,-0.3784,-4.329,13.171,-22.683,1.1213,100831.78
-1.1802,0.1118,-0.2612,-13.659,18.72,-22.5,1.2139,100831.65
-1.3242,0.146,-0.123,-19.207,16.463,-17.866,1.3379,100831.43
-0.9697,0.1226,-0.0952,-19.695,27.622,-26.22,0.9821,100831.26
-0.7012,0.0649,-0.0581,-16.402,25.0,-25.122,0.7066,100831.26
-0.8779,0.041,-0.0303,-17.378,3.232,-11.22,0.8794,100831.01
-1.0151,0.0762,-0.0894,-17.988,-5.549,-4.695,1.0219,100830.81
-1.0547,0.0913,-0.1577,-15.488,-12.866,2.805,1.0703,100830.67
-0.9731,0.0952,-0.2188,-12.622,-27.378,9.39,1.002,100830.55
-0.8857,0.0527,-0.3145,-8.902,-35.671,7.805,0.9414,100830.74
-0.8999,-0.0024,-0.3525,-2.073,-19.695,5.671,0.9665,100831.35
-0.9258,-0.0195,-0.269,5.244,1.28,5.305,0.9643,100831.46
-0.9375,-0.0215,-0.2124,7.378,6.463,6.28,0.9615,100830.56
-0.9399,-0.0249,-0.229,5.183,0.366,7.256,0.9678,100830.99
-0.9331,-0.0317,-0.3018,1.159,-3.232,5.305,0.9812,100830.95
-0.9375,-0.0317,-0.2944,-3.476,0.0,1.951,0.9832,100830.79
-0.9707,0.0186,-0.2651,-8.659,2.866,-0.366,1.0064,100831.15
-1.0166,0.0693,-0.3145,-12.195,1.646,0.061,1.0664,100830.82
-0.9902,0.0879,-0.3657,-10.549,-6.098,3.841,1.0593,100831.67
-1.0376,0.1094,-0.3804,-5.0,-16.89,13.293,1.1105,100831.91
-1.2695,0.1045,-0.2485,6.585,-15.061,23.415,1.2978,100832.02
-1.272,0.0537,-0.1538,13.659,4.939,23.78,1.2824,100831.1
-0.9653,0.0195,-0.1128,14.573,21.22,11.037,0.9721,100831.88
-0.7944,0.0288,0.0161,15.061,16.707,-1.22,0.7951,100831.99
-0.9731,0.0391,-0.0039,12.622,5.854,0.549,0.9739,100832.04
-1.0894,0.0713,-0.1392,14.085,-11.768,3.476,1.1005,100831.66
-1.0322,0.0952,-0.1704,18.293,-25.488,0.793,1.0505,100831.33
-0.9028,0.0776,-0.1748,15.549,-28.293,-2.927,0.9229,100831.66
-0.8472,0.0576,-0.2632,2.5,-18.415,-1.646,0.889,100831.42
-0.8599,0.0776,-0.2598,-12.256,4.512,1.585,0.9016,100831.11
-0.854,0.1138,-0.1548,-20.793,7.927,-0.488,0.8753,100830.62
-0.9136,0.1123,-0.2271,-25.244,-10.122,-3.415,0.948,100830.75
-0.9482,0.0942,-0.3267,-21.951,-8.11,-3.415,1.0073,100831.46
-0.9932,0.0781,-0.3535,-14.085,3.476,-2.744,1.0571,100832.22
-1.0195,0.0879,-0.332,-6.341,14.695,-7.866,1.0758,100832.05
-1.0059,0.1138,-0.3311,0.366,22.439,-13.963,1.065,100832.44
-1.0342,0.1143,-0.3477,5.061,21.585,-12.073,1.097,100832.59
-1.1211,0.1128,-0.3076,6.89,12.622,-8.659,1.168,100832.35
-1.3589,0.1401,-0.1318,5.61,-6.89,-3.171,1.3724,100832.4
-1.1816,0.1279,-0.1982,-4.207,9.512,-2.622,1.205,100831.33
-0.7983,0.0796,-0.0913,-3.841,44.329,-3.171,0.8075,100830.68
-0.7549,-0.0005,0.0684,-1.585,22.134,-3.11,0.758,100830.9
-0.9336,-0.0127,0.0557,-4.451,-0.732,-4.146,0.9353,100830.22
-1.0493,0.0405,-0.1787,-14.695,-23.841,3.415,1.0652,100829.98
-0.9111,0.0571,-0.2129,-12.561,-27.622,10.305,0.9374,100830.48
-0.8628,0.0259,-0.2695,-5.793,-30.732,6.951,0.9043,100830.39
-0.9121,-0.0093,-0.2939,2.805,-15.244,1.28,0.9583,100829.93
-0.9233,-0.0073,-0.2324,9.695,6.159,3.049,0.9522,100829.48
-0.9292,0.0107,-0.2031,10.0,8.78,8.354,0.9512,100828.75
-0.9355,0.0356,-0.2524,7.439,-2.378,8.049,0.9697,100828.71
-0.9575,0.0322,-0.3457,7.012,-7.927,7.988,1.0185,100828.55
-1.0156,0.0029,-0.3262,10.732,2.683,11.159,1.0667,100829.4
-1.0317,0.0093,-0.3276,11.585,11.28,11.585,1.0826,100829.8
-1.0337,0.0552,-0.3887,6.707,7.927,9.878,1.1057,100829.72
-1.1021,0.0786,-0.3823,2.317,0.793,11.768,1.1691,100829.54
-1.312,0.0474,-0.2124,6.951,5.244,20.122,1.3299,100829.77
-0.8896,0.1118,-0.0854,10.305,35.122,-1.524,0.9007,100829.31
-0.792,0.1216,0.0093,7.378,39.024,-2.317,0.8013,100828.89
-0.915,0.1143,0.0005,4.207,24.634,4.085,0.9221,100828.55
-0.9697,0.1094,-0.041,7.439,5.366,9.329,0.9767,100828.17
-1.0361,0.0737,-0.0674,6.89,-26.28,4.451,1.0409,100829.23
-0.9292,0.0059,-0.228,-5.183,-56.585,-6.159,0.9568,100829.04
-0.874,-0.0098,-0.3735,-17.256,-49.878,-2.561,0.9505,100829.9
-0.915,0.063,-0.4248,-28.049,-6.646,4.024,1.0108,100829.54
-0.8589,0.1445,-0.1909,-30.549,16.159,-4.695,0.8916,100829.79
-0.8853,0.1641,-0.2129,-33.171,-7.866,-16.402,0.9252,100829.7
-0.9331,0.1357,-0.292,-26.951,-17.317,-17.622,0.9871,100829.88
-0.981,0.0923,-0.2432,-20.061,-6.402,-10.793,1.0149,100829.3
-1.0088,0.0713,-0.2803,-20.427,-1.037,-4.451,1.0494,100829.71
-1.0088,0.0679,-0.3281,-19.329,9.756,-4.512,1.063,100829.77
-1.0571,0.0293,-0.3735,-18.72,17.927,-8.11,1.1216,100830.55
-1.0732,0.0391,-0.459,-22.134,17.317,-16.28,1.1679,100830.91
-1.0586,0.0977,-0.4966,-30.854,14.451,-22.805,1.1734,100830.39
-1.314,0.0479,-0.2466,-34.573,29.695,-8.11,1.3378,100830.52
-1.2212,0.0757,0.0952,-31.707,46.22,-16.159,1.2272,100830.37
-0.7705,0.0464,-0.0322,-29.939,35.122,-35.915,0.7726,100829.89
-0.856,-0.0269,-0.0073,-20.732,25.854,-27.439,0.8564,100830.26
-0.9854,-0.0107,0.0322,-20.976,1.341,-23.476,0.9859,100829.55
-0.9917,0.0454,-0.1201,-32.744,-25.061,-21.951,1.0,100829.77
-0.9468,0.0835,-0.1675,-38.78,-39.146,-10.976,0.9651,100830.44
-0.8999,0.1035,-0.2178,-40.671,-51.22,0.915,0.9316,100829.94
-0.8604,0.0742,-0.3174,-35.244,-56.463,3.11,0.92,100830.17
-0.9253,-0.0015,-0.4014,-23.537,-32.134,7.073,1.0086,100830.34
-0.9546,-0.0464,-0.3193,-8.049,6.524,8.598,1.0077,100829.86
-0.8872,-0.0215,-0.2461,-3.11,21.402,7.866,0.921,100829.62
-0.9229,-0.0215,-0.2183,-3.415,18.049,10.122,0.9486,100829.8
-0.9746,-0.0127,-0.251,-3.11,9.268,9.512,1.0065,100829.6
-1.0342,0.0361,-0.2866,-1.768,0.244,7.866,1.0738,100830.43
-1.0747,0.0786,-0.3818,-2.561,-10.0,8.232,1.1432,100831.65
-1.0557,0.0781,-0.4453,-0.793,-10.0,13.78,1.1484,100832.09
-1.2622,0.0322,-0.2759,6.22,0.427,26.585,1.2924,100831.52
-1.4673,0.0371,-0.0156,-0.122,20.549,26.463,1.4678,100831.38
-0.9429,0.0903,-0.0298,-16.707,38.293,6.768,0.9477,100831.14
-0.8418,0.0762,0.0664,-26.098,33.293,6.951,0.8478,100831.45
-1.0444,0.0684,0.0034,-31.585,22.439,12.683,1.0467,100830.66
-0.9683,0.0757,-0.1138,-19.939,7.622,9.634,0.9779,100830.45
-0.8774,0.0283,-0.1362,-5.854,-16.402,-0.61,0.8884,100830.3
-0.8667,-0.0205,-0.1787,-5.366,-34.573,-13.963,0.8852,100830.77
-0.8936,0.0352,-0.2812,-15.366,-32.256,-19.695,0.9374,100830.27
-0.9258,0.1157,-0.3032,-29.939,-13.841,-16.89,0.981,100829.54
-0.9375,0.1548,-0.2148,-45.244,1.341,-12.988,0.9742,100829.47
-0.8955,0.1226,-0.2285,-58.476,3.11,-11.951,0.9323,100829.66
-0.9331,0.0903,-0.2554,-61.646,-0.976,-8.78,0.9716,100829.56
-0.9766,0.1074,-0.2495,-58.232,1.159,-9.268,1.0136,100828.88
-0.9678,0.1323,-0.2295,-53.293,9.817,-11.341,1.0034,100830.09
-0.9785,0.1304,-0.2598,-51.524,12.744,-10.61,1.0208,100830.14
-1.002,0.0967,-0.4058,-52.012,17.622,-8.902,1.0853,100830.17
-1.0469,0.1011,-0.3867,-51.402,34.512,-10.427,1.1206,100830.2
-1.2998,0.1089,-0.1099,-54.695,42.622,-6.402,1.309,100829.62
-1.4609,0.0864,0.0083,-61.463,45.61,-11.89,1.4635,100828.95
-0.9302,-0.0562,-0.0811,-59.268,31.402,-34.39,0.9354,100828.69
-0.7329,-0.1113,-0.0098,-49.512,11.829,-33.598,0.7414,100829.48
-0.7842,-0.1162,0.0454,-52.195,-19.39,-31.341,0.794,100829.23
-0.9307,-0.0503,-0.1597,-62.927,-38.049,-26.707,0.9456,100828.65
-1.0586,0.0298,-0.2183,-57.622,-42.195,-20.671,1.0813,100828.59
-1.0366,0.0493,-0.2568,-51.159,-42.5,-16.28,1.0691,100829.67
-0.9312,-0.0039,-0.2749,-47.134,-24.207,-14.39,0.9709,100829.59
-0.9165,-0.0664,-0.2192,-50.793,-5.0,-11.768,0.9447,100829.43
-0.896,-0.0815,-0.2124,-60.915,5.122,-4.512,0.9244,100829.79
-0.9062,-0.0776,-0.187,-66.463,6.524,3.841,0.9286,100830.41
-0.9395,-0.001,-0.231,-68.537,2.012,6.159,0.9674,100830.02
-1.0078,0.0376,-0.251,-61.159,-1.098,8.78,1.0393,100829.86
-1.0972,0.0391,-0.2515,-49.512,1.707,10.976,1.1263,100829.12
-1.1064,0.0562,-0.3408,-41.159,-3.354,8.415,1.1591,100829.8
-1.0376,0.0825,-0.4653,-35.122,-3.171,12.134,1.1402,100829.58
-1.0454,0.0234,-0.3423,-22.805,16.89,23.963,1.1003,100829.88
-1.3721,-0.0435,0.0317,-14.451,33.11,36.89,1.3731,100830.25
-1.189,-0.0142,-0.0068,-23.171,38.293,18.963,1.1891,100829.67
-0.7285,0.0405,0.0244,-27.195,45.915,-6.159,0.7301,100829.74
-0.9136,0.0005,0.0469,-44.085,23.841,-2.744,0.9148,100830.29
-1.106,-0.0073,-0.0396,-48.841,-4.39,-0.061,1.1067,100830.31
-1.0317,0.0527,-0.168,-39.39,-25.976,-9.634,1.0467,100829.98
-0.918,0.0566,-0.2554,-38.415,-22.073,-19.756,0.9545,100830.45
-0.8828,0.0454,-0.2881,-50.671,16.341,-17.256,0.9297,100830.44
-0.8857,0.1172,-0.146,-67.805,43.354,-13.537,0.9053,100829.81
-0.9111,0.1538,-0.1084,-82.012,29.39,-15.61,0.9304,100830.69
-0.9536,0.1763,-0.1416,-84.085,4.024,-17.927,0.9801,100830.86
-0.9277,0.1938,-0.2202,-78.476,-9.756,-19.39,0.973,100829.39
-0.9004,0.1646,-0.3228,-68.476,-9.817,-17.5,0.9705,100830.0
-0.979,0.1089,-0.3442,-53.11,5.427,-11.037,1.0435,100830.85
-1.0439,0.1118,-0.3247,-41.402,25.549,-5.793,1.099,100830.47
-1.0342,0.1099,-0.3638,-37.744,34.39,-4.024,1.1018,100830.93
-1.0181,0.0732,-0.3857,-37.561,26.524,-6.707,1.0912,100830.77
-0.9253,0.064,-0.4658,-46.89,11.28,-16.098,1.0379,100831.01
-1.0845,0.0718,-0.3291,-49.634,21.951,-11.159,1.1356,100830.62
-1.4048,0.082,0.062,-53.415,46.463,-1.341,1.4085,100830.2
-0.9873,0.0796,-0.0786,-63.11,60.61,-20.122,0.9936,100830.73
-0.8384,-0.0254,-0.1216,-57.866,52.439,-17.683,0.8475,100831.0
-0.9619,-0.0444,0.1025,-54.512,7.073,-19.268,0.9684,100830.98
-0.897,0.0288,-0.0293,-75.061,-30.732,-31.159,0.8979,100831.11
-0.9346,0.0596,-0.2642,-83.232,-43.415,-27.073,0.973,100831.57
-0.9224,0.0898,-0.1885,-75.488,-50.732,-22.744,0.9457,100832.14
-0.9487,0.0796,-0.2793,-72.927,-55.427,-19.268,0.9922,100831.97
-0.981,0.0645,-0.3306,-62.378,-35.671,-17.073,1.0372,100831.04
-0.9653,0.0649,-0.251,-53.963,-2.561,-14.451,0.9995,100830.89
-0.9229,0.0684,-0.2241,-52.683,12.317,-9.146,0.9521,100830.91
-0.9331,0.0767,-0.25,-47.317,11.951,-1.524,0.9691,100832.02
-1.0127,0.0581,-0.3091,-19.512,5.854,4.878,1.0604,100831.4
-1.0454,0.0474,-0.3042,-6.707,8.72,4.695,1.0898,100831.88
-1.0225,0.0566,-0.3501,-0.244,7.134,5.793,1.0822,100831.89
-1.1611,0.0439,-0.2769,6.463,3.171,11.098,1.1945,100831.04
-1.4214,0.0308,0.0088,15.061,5.793,15.061,1.4217,100831.37
-1.2007,0.145,-0.0015,9.756,23.841,-6.585,1.2094,100830.78
-0.7422,0.208,0.0156,5.0,29.939,-27.073,0.7709,100830.56
-0.9761,0.1299,0.0171,-7.744,29.939,-3.963,0.9848,100830.17
-0.9814,0.0972,-0.0259,-10.61,15.915,8.537,0.9866,100830.72
-0.9092,0.083,-0.0708,-6.829,-15.488,4.39,0.9157,100831.15
-0.8228,0.0972,-0.1914,-34.146,18.659,-0.854,0.8503,100831.53
-0.8345,0.1387,-0.1323,-43.415,1.524,-6.28,0.8562,100831.49
-0.9058,0.166,-0.2437,-45.976,-26.89,-10.61,0.9525,100830.85
-0.999,0.1562,-0.3989,-43.293,-30.61,-7.805,1.087,100830.75
-1.0493,0.1265,-0.3706,-32.317,-4.329,-3.659,1.12,100830.17
-1.0156,0.1167,-0.29,-18.598,21.28,-4.939,1.0627,100830.84
-0.9946,0.0938,-0.3184,-10.061,30.122,-11.098,1.0485,100831.47
-0.9946,0.0913,-0.4072,-9.756,39.817,-14.024,1.0786,100831.21
-1.0654,0.1606,-0.3828,-15.427,44.085,-12.256,1.1435,100831.98
-1.4058,0.1982,-0.1436,-16.22,54.573,0.854,1.4269,100831.84
-1.3447,0.1675,-0.0298,-13.598,52.561,-10.61,1.3554,100831.47
-0.7285,0.0029,-0.0562,-7.805,12.256,-29.817,0.7307,100831.59
-0.7539,-0.0234,0.0962,-1.037,-20.549,-15.244,0.7604,100830.55
-0.9375,0.0156,-0.0493,-13.11,-41.951,-12.012,0.9389,100830.19
-1.001,0.0557,-0.1953,-21.463,-49.512,-8.232,1.0214,100830.85
-1.0039,0.0615,-0.2588,-26.098,-40.488,1.463,1.0385,100830.61
-0.9238,0.0249,-0.251,-25.671,-19.512,3.171,0.9576,100830.68
-0.8945,-0.0088,-0.2188,-24.268,-5.366,-0.122,0.9209,100830.74
-0.9038,-0.0068,-0.2056,-25.427,-1.524,-0.244,0.9269,100830.27
-0.915,-0.0171,-0.2036,-25.793,-0.183,2.378,0.9376,100830.2
-0.9121,-0.0088,-0.2275,-22.073,-5.244,3.598,0.9401,100830.49
-0.9175,0.0264,-0.3296,-16.524,-15.793,2.744,0.9752,100830.23
-0.9629,0.0396,-0.3408,-9.024,-7.134,3.78,1.0222,100830.63
-1.1094,0.0581,-0.3115,-0.915,-1.524,6.098,1.1537,100830.97
-1.0649,0.1084,-0.4316,-1.402,-9.573,7.622,1.1542,100831.04
-1.167,0.0962,-0.3184,5.793,4.207,17.683,1.2135,100830.02
-1.2983,0.0737,-0.04,15.976,19.207,20.244,1.301,100829.99
-1.1235,0.0825,0.0005,14.085,32.805,6.463,1.1266,100830.34
-0.8398,0.1387,0.0005,10.61,54.207,-6.098,0.8512,100829.72
-0.9185,0.1235,0.0439,0.061,52.134,0.854,0.9278,100830.39
-0.9888,0.0938,0.0483,-8.171,26.28,4.878,0.9944,100830.74
-0.9297,0.0811,-0.0479,-7.805,-22.378,2.012,0.9344,100830.52
-0.8647,0.0654,-0.188,-4.024,-62.195,-7.134,0.8874,100830.58
-0.9268,0.064,-0.4512,-13.415,-48.78,-1.524,1.0327,100830.39
-0.9609,0.1104,-0.4434,-28.841,13.476,6.707,1.064,100830.85
-0.8813,0.1533,-0.2144,-36.585,35.305,-2.5,0.9199,100831.08
-0.8003,0.1597,-0.1685,-33.476,3.049,-14.207,0.8333,100830.64
-0.8696,0.0879,-0.2622,-25.732,-25.671,-12.988,0.9125,100831.53
-0.9736,0.0811,-0.3242,-17.195,-28.72,-10.244,1.0294,100831.7
-1.043,0.1265,-0.4126,-15.183,-9.451,-10.427,1.1287,100831.47
-1.0396,0.1543,-0.457,-15.854,29.085,-10.244,1.146,100831.42
-1.0005,0.1514,-0.3989,-14.695,49.512,-7.988,1.0877,100830.98
-0.9971,0.1704,-0.3706,-10.427,34.085,-12.012,1.0773,100831.41
-1.1372,0.2065,-0.3418,-7.805,5.732,-9.756,1.2053,100830.77
-1.3706,0.1777,-0.0151,-7.683,7.866,0.976,1.3822,100831.01
-1.1147,0.0938,-0.0679,-15.793,22.744,-12.073,1.1207,100830.22
-0.7695,0.002,0.0176,-3.963,5.183,-22.439,0.7697,100829.98
-0.8057,-0.0171,0.1055,-0.976,-14.146,-11.768,0.8127,100829.7
-0.9033,0.0435,-0.0835,-13.902,-30.976,-8.841,0.9082,100830.57
-0.9766,0.0874,-0.2432,-19.207,-48.415,-3.598,1.0102,100829.98
-1.0542,0.084,-0.231,-17.378,-35.549,8.841,1.0825,100829.09
-0.917,0.0864,-0.21,-14.146,-9.878,6.159,0.9447,100829.52
-0.8628,0.0337,-0.2085,-9.329,-1.829,1.22,0.8883,100829.21
-0.8906,-0.0225,-0.1802,-2.439,-0.915,2.073,0.9089,100829.48
-0.8843,-0.0283,-0.1675,3.476,-2.5,5.366,0.9004,100830.16
-0.9639,0.0156,-0.2192,7.012,-20.854,7.927,0.9886,100830.3
-1.0034,0.0688,-0.3882,8.72,-30.671,4.756,1.0781,100830.53
-1.0752,0.0566,-0.3438,14.817,-8.841,5.427,1.1302,100830.7
-1.0947,0.0781,-0.2915,15.793,9.695,6.951,1.1356,100829.39
-1.0444,0.0996,-0.4048,14.756,16.646,9.756,1.1246,100830.21
-1.0776,0.123,-0.4282,21.402,33.232,17.439,1.1661,100830.95
-1.2998,0.1079,0.0044,37.439,42.5,24.756,1.3043,100831.27
-1.251,0.125,0.2197,36.646,28.11,14.878,1.2763,100831.51
-0.7949,0.1709,0.0566,22.378,14.817,-2.683,0.8151,100830.59
-0.9429,0.1328,-0.0278,5.915,7.622,11.829,0.9526,100831.0
-1.0249,0.0962,-0.0601,6.524,-20.854,15.183,1.0312,100830.23
-0.9048,0.064,-0.2388,15.854,-45.549,6.646,0.9379,100830.85
-0.9478,0.0469,-0.4399,13.902,-8.963,3.293,1.0459,100830.45
-0.8584,0.1152,-0.2461,13.11,33.11,-3.293,0.9004,100830.75
-0.7095,0.1846,-0.0703,1.402,9.573,-10.366,0.7365,100831.36
-0.8491,0.1777,-0.1235,-19.024,-16.951,-6.037,0.8763,100830.7
-0.9497,0.1431,-0.3379,-29.268,-30.427,-4.695,1.0181,100830.81
-0.9487,0.1235,-0.4033,-23.476,-25.915,-7.561,1.0383,100831.03
-0.9937,0.1343,-0.2925,-14.634,-6.037,-11.098,1.0445,100832.05
-0.9946,0.1841,-0.2095,-9.024,4.634,-16.22,1.033,100831.48
-1.021,0.1792,-0.3784,-8.171,7.805,-11.585,1.1035,100831.53
-1.1318,0.1255,-0.5088,-3.415,20.61,0.915,1.2473,100831.34
-1.1489,0.1641,-0.3726,0.671,30.732,-1.646,1.2189,100831.19
-1.229,0.2012,-0.0972,3.293,21.037,-7.073,1.2491,100830.69
-1.1343,0.1562,0.0322,2.866,16.951,-11.524,1.1454,100830.58
-0.8398,0.0542,-0.0024,5.732,26.463,-13.415,0.8416,100830.75
-0.9258,-0.0273,0.0918,14.268,7.744,-0.122,0.9307,100831.12
-1.0288,0.0068,0.1274,7.317,-29.024,-4.878,1.0367,100831.02
-0.9331,0.0479,-0.1782,-12.439,-57.439,-11.463,0.9512,100830.72
-0.9092,0.0732,-0.3311,-15.366,-48.415,4.024,0.9703,100830.98
-0.9497,0.0483,-0.2842,-6.098,-12.683,12.866,0.9925,100831.16
-0.8926,0.0264,-0.1733,5.244,8.171,0.183,0.9096,100831.67
-0.8608,-0.0093,-0.1807,8.476,5.183,-3.78,0.8796,100830.95
-0.9409,0.0151,-0.2432,9.268,-9.146,8.659,0.9719,100830.9
-0.9639,0.0586,-0.3198,12.866,-10.366,6.951,1.0172,100831.1
-1.0273,0.0571,-0.2441,15.366,-0.244,7.073,1.0575,100832.22
-1.0591,0.0537,-0.2256,11.89,1.768,8.415,1.0842,100831.98
-1.0913,0.0786,-0.3755,7.683,-5.793,12.5,1.1568,100832.16
-1.1377,0.0947,-0.4971,13.293,-1.768,16.037,1.2452,100831.91
-1.1704,0.0669,-0.2222,31.829,18.11,13.171,1.1932,100831.98
-1.1768,0.02,0.0713,40.244,19.878,12.622,1.1791,100831.66
-0.9888,0.0742,0.166,36.951,18.659,3.72,1.0054,100831.18
-0.8584,0.1646,0.0957,21.524,16.89,-4.756,0.8793,100831.32
-1.04,0.1094,0.0166,8.171,-4.268,9.512,1.0459,100830.93
-1.0439,0.085,-0.0986,13.415,-35.183,13.354,1.052,100831.23
-1.0347,0.0366,-0.3301,11.037,-28.72,5.793,1.0867,100830.48
-0.8838,-0.0107,-0.3022,-3.11,25.122,-4.146,0.9341,100829.93
-0.6489,0.063,-0.0991,-21.402,26.89,-11.646,0.6595,100830.24
-0.748,0.145,-0.0464,-40.61,-4.207,-6.524,0.7634,100830.48
-0.9893,0.2109,-0.1675,-52.866,-23.354,-2.5,1.0253,100831.16
-1.0767,0.2046,-0.4155,-47.988,-36.829,-2.256,1.1721,100831.05
-1.0073,0.1538,-0.3418,-24.939,-12.805,0.061,1.0748,100831.46
-0.959,0.1226,-0.2129,-9.268,8.902,-2.683,0.9899,100831.53
-0.9849,0.1191,-0.2578,-5.0,8.841,-6.341,1.025,100831.2
-1.0566,0.0913,-0.4106,-3.049,13.415,-5.183,1.1373,100832.16
-1.0405,0.085,-0.4839,0.671,26.768,-6.585,1.1507,100832.16
-1.0405,0.1523,-0.376,5.244,34.512,-14.268,1.1168,100832.87
-1.2334,0.1753,-0.1548,2.439,34.939,-13.354,1.2554,100833.05
-1.3672,0.1235,-0.0063,-6.463,43.354,-6.707,1.3728,100832.29
-0.8755,0.0864,0.0073,-1.707,40.854,-19.573,0.8798,100831.4
-0.7163,0.0215,0.0835,8.476,16.28,-14.634,0.7215,100830.99
-0.8633,0.0557,0.1143,0.122,-19.817,-7.744,0.8726,100830.82
-0.9385,0.1133,-0.1328,-17.805,-62.805,-8.537,0.9546,100831.54
-1.0796,0.0972,-0.2891,-18.171,-70.854,2.866,1.1218,100831.81
-1.063,0.0864,-0.3525,-8.537,-28.841,13.232,1.1233,100831.41
-0.9175,0.064,-0.2485,3.354,5.244,6.768,0.9527,100832.21
-0.8691,0.0098,-0.2002,8.476,5.305,1.463,0.892,100831.85
-0.9141,-0.0347,-0.1587,10.305,-0.793,12.439,0.9284,100831.41
-0.979,0.0,-0.2681,9.512,-16.098,9.573,1.015,100831.26
-1.0034,0.0547,-0.3647,9.634,-20.244,3.659,1.0691,100831.73
-1.0542,0.0825,-0.3203,7.5,-6.768,4.573,1.1049,100831.37
-1.085,0.1104,-0.3462,2.866,3.72,9.573,1.1442,100830.73
-1.062,0.1045,-0.3926,4.939,9.939,14.024,1.1371,100831.34
-1.1392,0.0894,-0.3027,14.756,19.085,18.78,1.1821,100831.2
-1.2871,0.0562,0.0381,27.195,21.89,18.78,1.2889,100830.85
-1.0547,0.0869,0.1147,23.354,26.524,4.695,1.0645,100830.7
-0.8765,0.1255,0.0415,12.744,34.39,-1.585,0.8864,100831.8
-0.9888,0.083,0.0542,4.634,19.573,7.561,0.9937,100832.63
-0.9478,0.0376,-0.0596,2.988,-17.988,10.854,0.9504,100832.77
-0.9741,0.0015,-0.2139,8.963,-45.793,4.39,0.9973,100832.63
-0.9897,0.0015,-0.4277,6.585,-18.476,-2.927,1.0782,100832.05
-0.8447,0.062,-0.2295,-6.646,33.171,-5.915,0.8775,100831.47
-0.751,0.1113,-0.0737,-29.573,16.28,-11.585,0.7628,100831.52
-0.8687,0.1201,-0.1367,-47.5,-19.695,-14.207,0.8875,100831.95
-0.978,0.1094,-0.2944,-55.793,-31.646,-10.0,1.0272,100832.16
-1.0088,0.1001,-0.3921,-51.89,-21.951,-3.476,1.0869,100832.53
-1.0171,0.104,-0.3052,-39.024,-0.061,-3.11,1.067,100832.43
-0.9995,0.1235,-0.2524,-29.268,15.305,-8.537,1.0383,100832.14
-0.998,0.1201,-0.3057,-25.671,20.183,-10.366,1.0507,100832.15
-0.9878,0.1099,-0.397,-27.195,27.256,-8.963,1.0702,100832.65
-1.0093,0.1372,-0.4316,-29.634,32.378,-10.183,1.1062,100832.16
-1.2065,0.1602,-0.2905,-30.427,30.549,-6.28,1.2513,100831.78
-1.3628,0.0928,-0.0562,-34.085,47.378,-3.415,1.3671,100831.51
-0.9688,0.0146,0.0117,-31.037,36.037,-20.671,0.9689,100831.67
-0.7627,-0.0479,0.0078,-26.402,1.524,-22.195,0.7642,100830.7
-0.8677,-0.0708,0.0488,-28.476,-23.78,-20.305,0.8719,100831.06
-0.9937,-0.0322,-0.0908,-41.89,-43.476,-21.829,0.9983,100830.46
-1.0659,-0.0249,-0.2476,-52.317,-40.976,-12.683,1.0946,100830.41
-1.0493,-0.0068,-0.2246,-49.146,-23.963,-1.463,1.0731,100831.47
-0.9536,0.0078,-0.1914,-41.585,-14.756,-4.634,0.9727,100831.05
-0.8608,-0.0039,-0.2144,-39.451,-12.866,-14.207,0.8871,100831.72
-0.875,-0.0171,-0.1973,-41.098,-7.256,-10.793,0.8971,100831.6
-0.918,-0.019,-0.2109,-43.11,-2.073,-1.829,0.9421,100831.99
-0.9492,-0.0142,-0.2163,-39.085,-2.561,3.598,0.9737,100832.02
-0.9521,0.0181,-0.2632,-31.159,-4.085,4.817,0.988,100832.18
-0.9946,0.0249,-0.3169,-21.707,-1.89,5.732,1.0442,100831.82
-1.064,0.0029,-0.3149,-11.951,3.598,8.049,1.1096,100832.16
-1.0571,0.0132,-0.3257,-6.829,8.171,10.732,1.1062,100832.52
-1.0444,0.0312,-0.3564,-6.585,7.073,14.939,1.104,100831.96
-1.2935,-0.0117,-0.1572,-2.439,13.902,24.695,1.303,100831.77
-1.439,-0.0186,0.0767,-1.707,23.659,23.902,1.4411,100831.87
-0.9492,0.0542,-0.0381,-13.841,33.902,-4.085,0.9515,100831.58
-0.7539,0.0986,0.043,-24.085,41.28,-14.268,0.7615,100831.75
-0.8984,0.0645,0.0547,-42.927,29.695,-6.159,0.9024,100831.6
-0.9941,0.0815,-0.0215,-47.134,10.122,2.317,0.9977,100831.63
-1.0264,0.0991,-0.1353,-44.146,-16.89,-2.561,1.04,100830.55
-1.0132,0.0625,-0.2754,-48.902,-15.793,-7.805,1.0518,100830.44
-0.9404,0.0669,-0.3091,-64.146,18.293,-5.488,0.9922,100830.28
-0.8374,0.0923,-0.1538,-80.0,33.171,-9.451,0.8564,100830.24
-0.8452,0.125,-0.127,-87.744,13.659,-13.659,0.8638,100830.61
-0.9409,0.1646,-0.1851,-86.463,-11.402,-14.207,0.973,100830.87
-0.9932,0.1685,-0.2466,-80.854,-21.707,-12.988,1.0371,100830.56
-0.9341,0.1548,-0.2769,-69.207,-11.28,-10.793,0.9865,100830.96
-0.9521,0.1196,-0.3159,-54.817,0.061,-8.171,1.0103,100831.48
-1.0229,0.0762,-0.3779,-42.073,13.537,-8.963,1.0932,100830.9
-1.0576,0.0288,-0.3774,-31.829,32.256,-13.11,1.1233,100830.73
-1.0396,-0.0049,-0.3633,-28.598,39.39,-21.646,1.1012,100830.95
-1.0063,-0.001,-0.3677,-34.268,36.524,-31.341,1.0714,100831.73
-1.0703,0.0713,-0.3525,-47.317,35.305,-35.549,1.1291,100831.36
-1.2568,0.1616,-0.166,-61.524,37.561,-30.793,1.278,100830.95
-1.1899,0.1572,0.0093,-66.341,29.451,-33.11,1.2003,100831.12
-0.8042,0.0703,-0.0703,-56.28,25.732,-32.866,0.8103,100830.63
-0.7876,0.0103,0.0273,-42.378,20.854,-17.195,0.7881,100830.9
-0.9868,0.0425,-0.0796,-73.659,-46.402,-29.512,0.9909,100830.47
-1.0278,0.0562,-0.1948,-89.085,-61.89,-15.915,1.0476,100830.16
-0.9424,0.0859,-0.272,-93.476,-56.585,0.549,0.9846,100830.16
-0.9492,0.0679,-0.3618,-85.305,-42.866,5.427,1.0181,100831.51
-0.9844,0.0215,-0.3203,-69.085,-10.244,-3.415,1.0354,100832.05
-0.917,0.0205,-0.2266,-55.244,12.744,-8.293,0.9448,100831.19
-0.9077,0.0254,-0.1919,-48.78,14.39,-1.037,0.9281,100830.23
-0.9272,0.0229,-0.1704,-45.793,8.232,6.341,0.9431,100830.1
-0.9956,0.0098,-0.1738,-42.317,-2.927,9.39,1.0107,100829.99
-1.0791,0.0688,-0.2256,-38.11,-7.866,5.061,1.1046,100830.41
-1.0659,0.1133,-0.2739,-33.902,-6.098,2.012,1.1064,100830.13
-1.0654,0.1431,-0.4062,-30.244,-4.207,8.049,1.1492,100830.27
-1.1499,0.0732,-0.376,-15.488,12.073,19.146,1.212,100830.27
-1.3296,-0.0142,-0.0615,2.683,29.695,25.366,1.3311,100830.28
-1.1489,0.0005,-0.002,7.439,37.012,7.073,1.1489,100830.4
-0.7935,0.0576,0.0508,3.232,46.524,-18.11,0.7972,100830.36
-0.7998,0.0845,0.0762,-18.537,32.134,-17.134,0.8079,100829.74
-1.0386,0.0713,0.0405,-38.963,8.963,-2.134,1.0418,100829.63
-1.1167,0.0674,-0.1045,-45.366,-18.659,2.073,1.1236,100830.19
-1.0127,0.0513,-0.3398,-50.976,-20.915,-1.341,1.0694,100830.33
-0.9722,-0.0078,-0.3428,-66.159,33.963,-2.378,1.0309,100830.31
-0.7485,0.0591,-0.0796,-71.646,53.293,-22.256,0.7551,100830.42
-0.7568,0.1294,-0.0425,-82.012,20.183,-33.049,0.769,100830.13
-0.915,0.1611,-0.1597,-92.256,-0.671,-28.72,0.9427,100830.65
-1.0225,0.1577,-0.3013,-101.098,-4.512,-16.463,1.0775,100830.88
-0.9873,0.1641,-0.3604,-100.0,-7.744,-9.756,1.0637,100831.07
-0.9414,0.1587,-0.3394,-82.195,-2.012,-10.305,1.0132,100831.34
-0.9712,0.1509,-0.3584,-58.049,4.451,-13.841,1.0461,100831.18
-1.0186,0.1641,-0.4053,-37.256,14.207,-15.183,1.1084,100831.18
-1.0479,0.1152,-0.4282,-25.488,26.646,-14.756,1.1378,100831.04
-0.999,0.0664,-0.4443,-22.561,28.841,-17.012,1.0954,100831.3
-1.1553,0.0918,-0.4414,-25.0,29.024,-14.268,1.2401,100831.76
-1.3379,0.1318,-0.0854,-26.402,48.354,-13.537,1.3471,100831.23
-0.9404,0.1221,0.0986,-26.951,42.256,-35.366,0.9534,100831.44
-0.7964,0.0254,0.0942,-23.659,14.207,-30.488,0.8023,100831.46
-0.9761,0.0405,0.043,-30.427,-15.854,-16.28,0.9779,100831.63
-0.9912,0.0996,-0.1489,-46.402,-62.927,-19.024,1.0073,100832.35
-1.0117,0.0967,-0.3062,-52.866,-63.841,-7.439,1.0614,100832.25
-0.9458,0.123,-0.3208,-45.549,-21.585,5.366,1.0063,100832.22
-0.8477,0.0972,-0.207,-36.28,2.988,2.134,0.878,100831.91
-0.8213,0.0449,-0.23,-29.573,1.951,0.671,0.8541,100831.46
-0.8647,0.0073,-0.2134,-20.61,3.11,9.207,0.8907,100831.73
-0.9395,0.0063,-0.2139,-13.78,0.915,14.024,0.9635,100831.42
-0.9521,0.021,-0.3091,-6.89,-8.902,11.28,1.0013,100831.59
-0.9854,0.04,-0.3623,1.768,-11.402,9.695,1.0506,100831.08
-1.0967,0.0762,-0.2827,7.805,-2.012,10.305,1.1351,100831.7
-1.1216,0.1519,-0.3716,4.268,-1.585,9.695,1.1913,100832.27
-1.0791,0.2173,-0.459,-1.89,3.171,13.232,1.1926,100832.2
-1.3408,0.1309,-0.1074,6.22,28.902,27.561,1.3515,100832.27
-1.1675,0.1084,0.1772,12.073,25.793,20.305,1.1858,100832.58
-0.7764,0.2197,0.0396,6.463,9.329,3.902,0.8078,100832.57
-0.9893,0.1597,0.0615,-1.341,-6.646,2.256,1.0039,100831.95
-1.0703,0.0376,-0.0469,-3.354,-29.329,2.134,1.072,100831.48
-0.9624,0.0757,-0.2529,7.134,-25.122,7.744,0.998,100831.85
-0.9644,0.0918,-0.3037,3.963,15.366,5.061,1.0152,100831.88
-0.7661,0.1499,-0.1387,-6.951,30.671,-15.0,0.7929,100830.81
-0.6675,0.2031,-0.0771,-24.268,6.037,-18.841,0.702,100830.57
-0.8633,0.2197,-0.0908,-36.829,-16.22,-10.671,0.8954,100830.68
-0.9448,0.229,-0.1865,-41.159,-26.707,-9.39,0.9899,100831.01
-0.9351,0.2114,-0.2964,-35.488,-28.232,-6.341,1.0034,100831.73
-1.0044,0.1812,-0.2886,-24.024,-17.622,-2.683,1.0606,100831.7
-1.0576,0.1475,-0.2881,-17.195,0.976,-5.793,1.106,100831.66
-1.0854,0.1191,-0.3657,-16.22,18.293,-8.293,1.1516,100831.38
-1.0718,0.1138,-0.395,-17.5,33.72,-8.841,1.1479,100831.28
-0.9497,0.1548,-0.376,-18.72,30.122,-18.354,1.0331,100831.95
-1.0039,0.1895,-0.2646,-13.293,16.829,-19.512,1.0553,100831.95
-1.3916,0.2422,0.0728,-10.671,19.085,-4.878,1.4144,100830.99
-1.1328,0.1846,-0.0103,-15.793,21.22,-14.024,1.1478,100831.6
-0.8105,0.0591,0.1133,0.244,23.171,-12.622,0.8206,100831.59
-0.9951,0.0356,0.1128,6.341,-14.817,-2.622,1.0021,100831.58
-0.9541,0.0972,-0.0747,0.244,-50.915,-15.427,0.9619,100831.94
-0.938,0.0879,-0.248,-8.963,-41.402,-10.854,0.9742,100832.21
-0.9155,0.0649,-0.2002,-12.561,-6.159,3.902,0.9394,100832.16
-0.855,0.0601,-0.1416,-13.11,4.268,5.366,0.8687,100832.02
-0.8716,0.0444,-0.1758,-11.402,-4.512,2.988,0.8902,100831.92
-0.9531,0.0103,-0.1689,-5.244,-4.329,6.402,0.968,100832.1
-0.9736,0.0176,-0.1973,0.549,-2.622,8.72,0.9936,100832.37
-0.9536,0.04,-0.2368,5.183,-5.549,7.256,0.9834,100832.78
-0.9399,0.0532,-0.248,7.439,-3.963,4.939,0.9736,100832.0
-0.9722,0.0488,-0.2007,6.098,-2.561,4.024,0.9939,100832.04
-1.0664,0.0581,-0.2275,0.61,-4.634,8.11,1.092,100832.17
-1.1406,0.0825,-0.3662,-2.744,-4.207,13.232,1.2008,100832.39
-1.1079,0.1064,-0.4756,4.146,11.159,13.537,1.2104,100832.21
-1.1836,0.1084,-0.1567,19.573,32.561,15.0,1.1988,100831.69
-1.2783,0.1006,0.146,21.951,19.39,15.732,1.2906,100832.39
-1.0337,0.1914,0.0884,17.561,23.232,4.329,1.055,100831.82
-0.8003,0.2529,0.0396,14.451,27.744,-6.585,0.8402,100831.77
-0.9048,0.1523,0.0264,11.402,4.756,2.317,0.9179,100832.09
-0.9243,0.1177,-0.0757,17.073,-30.122,7.256,0.9348,100832.35
-0.9761,0.1255,-0.3291,18.049,-32.195,5.122,1.0377,100832.41
-0.9717,0.0967,-0.3213,9.207,16.524,1.646,1.028,100832.05
-0.8252,0.1309,-0.1548,-9.512,31.098,-3.415,0.8497,100832.66
-0.8125,0.1909,-0.1318,-26.402,7.256,-4.146,0.845,100833.97
-0.8848,0.2104,-0.1963,-31.707,-12.317,-4.268,0.9304,100833.98
-0.9224,0.1772,-0.3276,-29.268,-16.646,-4.573,0.9947,100833.26
-0.9512,0.1245,-0.3618,-21.22,-3.841,-3.354,1.0253,100832.8
-0.958,0.1118,-0.2886,-13.841,10.61,-5.793,1.0068,100832.11
-0.981,0.1377,-0.3003,-11.646,14.329,-11.524,1.0351,100831.72
-0.9971,0.146,-0.3647,-12.5,20.915,-14.268,1.0717,100832.41
-0.9878,0.1611,-0.4053,-15.488,28.415,-10.549,1.0798,100833.16
-0.9556,0.187,-0.4863,-17.805,22.561,-9.268,1.0884,100832.75
-1.4019,0.2339,-0.1348,-3.049,25.976,2.744,1.4276,100832.2
-1.0786,0.1934,-0.1089,4.39,27.256,-15.061,1.1012,100832.05
-0.749,0.0459,0.0298,19.207,16.037,-22.988,0.751,100832.16
-0.8428,0.0347,0.1406,22.622,-16.707,-16.28,0.8551,100831.66
-1.0273,0.1055,-0.1128,3.598,-44.085,-13.78,1.0389,100830.16
-1.0571,0.0742,-0.2798,-8.659,-43.415,-7.073,1.096,100830.61
-0.9702,0.0283,-0.2432,-14.024,-16.951,8.232,1.0006,100830.84
-0.8481,0.0503,-0.2002,-14.268,-5.915,6.098,0.8729,100831.54
-0.8101,0.0493,-0.2754,-10.61,-17.378,-2.195,0.857,100831.18
-0.9038,0.0161,-0.2769,-3.72,-16.768,0.671,0.9454,100831.17
-0.9775,0.022,-0.2705,1.098,-6.951,6.524,1.0145,100831.77
-0.9453,0.0625,-0.3345,3.598,1.646,6.89,1.0047,100832.33
-0.9019,0.0659,-0.3003,7.988,7.622,8.049,0.9528,100832.64
-0.9517,0.0327,-0.2695,10.793,2.012,8.963,0.9896,100832.48
-1.0024,0.0215,-0.293,11.098,-3.354,8.72,1.0446,100832.77
-1.0366,0.0322,-0.373,9.146,-5.732,9.268,1.1022,100832.73
-1.0825,0.0356,-0.4502,8.293,-6.463,12.683,1.1729,100832.72
-1.2583,0.0366,-0.3125,14.939,5.427,19.451,1.297,100832.34
-1.418,0.0898,0.0151,21.585,19.146,19.451,1.4209,100831.92
-1.0205,0.2051,-0.0112,14.695,31.829,-1.098,1.041,100831.63
-0.7979,0.2603,0.0278,12.256,31.159,-9.39,0.8397,100831.76
-0.9346,0.1899,-0.0269,5.183,6.524,2.805,0.9541,100831.61
-0.9556,0.1304,-0.0835,12.378,-23.598,15.61,0.968,100831.24
-0.9316,0.1084,-0.2051,21.037,-43.72,11.28,0.9601,100830.97
-0.8989,0.0693,-0.4067,17.256,-21.402,2.134,0.9891,100831.5
-0.8315,0.0854,-0.2764,8.78,22.256,0.061,0.8804,100830.52
-0.7886,0.1523,-0.1528,-2.5,14.512,-4.207,0.8176,100830.76
-0.856,0.1997,-0.1436,-7.622,-14.268,-8.963,0.8906,100831.56
-0.9028,0.1895,-0.2271,-11.402,-31.098,-9.573,0.95,100832.03
-0.9404,0.1411,-0.3335,-13.78,-31.768,-3.963,1.0077,100831.63
-0.9927,0.0977,-0.3774,-10.671,-15.305,0.427,1.0665,100831.81
-1.0288,0.0894,-0.354,-2.805,7.195,-2.927,1.0917,100832.2
-1.0352,0.0923,-0.3843,2.378,20.305,-10.061,1.108,100831.73
-1.064,0.0835,-0.4258,3.171,29.634,-13.537,1.149,100831.37
-1.0532,0.1304,-0.3989,-2.622,28.293,-18.232,1.1338,100831.35
-1.1279,0.1963,-0.2905,-9.024,19.634,-16.28,1.1812,100831.22
-1.355,0.2163,-0.0425,-10.976,15.61,-8.354,1.3728,100831.47
-0.9941,0.1631,-0.0801,-9.39,21.707,-17.561,1.0106,100830.95
-0.7559,0.0449,-0.001,3.963,26.22,-12.744,0.7572,100830.7
-0.9082,0.0083,0.0923,12.317,-2.988,-2.012,0.9129,100830.38
-0.9604,0.0542,-0.0688,5.122,-35.183,-6.524,0.9644,100830.48
-0.9854,0.0811,-0.1689,-0.732,-47.378,-3.354,1.003,100830.32
-0.9731,0.0576,-0.2295,-7.805,-41.159,9.817,1.0015,100830.46
-0.9097,0.0273,-0.2705,-10.061,-22.5,14.146,0.9494,100829.83
-0.9463,-0.0156,-0.2856,-7.927,-9.817,9.451,0.9886,100830.57
-0.9478,-0.0298,-0.2622,-3.11,1.524,3.841,0.9838,100830.31
-0.9141,-0.0088,-0.2197,2.622,10.915,4.268,0.9401,100830.36
-0.9048,0.0132,-0.2339,5.244,7.561,5.671,0.9346,100831.48
-0.9258,0.0127,-0.2817,6.89,2.012,5.061,0.9678,100831.46
-1.0444,-0.0107,-0.2637,9.512,6.646,1.829,1.0773,100831.09
-1.0703,-0.0205,-0.251,10.0,9.512,-8.598,1.0995,100831.05
-0.981,0.0034,-0.3364,4.573,1.098,-14.939,1.037,100831.15
-0.9712,0.0254,-0.4839,-5.122,-12.134,-2.622,1.0854,100831.34
-1.1582,-0.0171,-0.3721,-3.415,4.695,21.89,1.2166,100831.24
-1.3643,-0.0132,-0.0391,-0.305,23.598,28.476,1.3649,100831.28
-1.1074,0.0493,-0.0933,-9.756,18.537,5.122,1.1124,100830.97
-0.8823,0.147,0.0435,-10.305,26.707,-10.671,0.8955,100830.59
-0.9922,0.1479,-0.0762,-20.366,26.768,16.098,1.006,100829.84
-0.9365,0.1401,-0.1143,-11.646,0.122,18.537,0.9538,100830.1
-0.8418,0.0728,-0.1489,-1.585,-31.524,3.902,0.858,100829.7
-0.8403,0.0259,-0.3403,-2.683,-34.329,-1.768,0.907,100829.39
-0.9204,0.0693,-0.4209,-10.305,-2.622,1.646,1.0145,100830.15
-0.916,0.123,-0.2471,-18.72,22.805,0.488,0.9567,100829.88
-0.8354,0.1562,-0.2241,-25.488,5.488,-8.659,0.879,100830.62
-0.8765,0.1416,-0.3574,-24.146,-19.024,-10.732,0.9571,100831.05
-0.9526,0.1079,-0.356,-18.354,-19.939,-9.451,1.0227,100831.01
-0.9956,0.0977,-0.4165,-15.549,-5.305,-7.622,1.0836,100831.23
-1.0322,0.1152,-0.3779,-9.573,19.817,-4.878,1.1053,100830.78
-0.9995,0.1138,-0.394,-8.171,31.037,-7.134,1.0804,100830.96
-0.9336,0.0889,-0.4116,-9.634,28.049,-10.0,1.0242,100831.2
-0.9336,0.0781,-0.4316,-18.598,5.61,-14.268,1.0315,100830.88
-1.1519,0.1123,-0.3853,-27.439,0.61,-12.988,1.2198,100830.75
-1.3286,0.1514,-0.1147,-32.439,19.329,-6.707,1.3421,100829.95
-1.0352,0.0947,-0.0146,-33.537,32.195,-16.524,1.0396,100830.1
-0.832,0.001,0.0225,-22.195,28.902,-21.28,0.8323,100830.44
-0.9717,-0.0347,0.0308,-15.793,-1.646,-14.329,0.9728,100830.07
-1.0767,0.0117,-0.0952,-25.305,-40.244,-16.89,1.0809,100830.19
-0.9575,0.019,-0.2061,-39.085,-48.354,-14.756,0.9796,100830.77
-0.9302,0.0459,-0.2637,-49.268,-38.293,3.049,0.9679,100830.66
-0.8823,0.0444,-0.2119,-48.537,-15.305,2.866,0.9085,100830.97
-0.8511,0.0156,-0.2207,-44.634,-9.695,-6.037,0.8794,100830.98
-0.9697,-0.0195,-0.2217,-29.268,-2.683,1.89,0.9949,100831.8
-0.9419,0.0029,-0.2358,-20.244,-1.524,3.598,0.971,100831.96
-0.9229,0.0244,-0.2666,-12.866,-8.232,2.683,0.9609,100831.84
-0.978,0.0361,-0.2559,-8.232,-7.378,2.5,1.0116,100831.88
-1.0176,0.0801,-0.2842,-5.549,-1.22,-0.244,1.0595,100832.88
-1.0659,0.0889,-0.3403,-4.817,-4.939,6.341,1.1225,100831.55
-1.0776,0.0688,-0.3784,-3.72,-6.707,18.72,1.1442,100831.27
-1.1426,0.0234,-0.3462,-0.793,4.939,30.244,1.1941,100832.16
-1.3037,0.0015,-0.0742,3.293,14.451,35.793,1.3058,100832.07
-1.2217,0.0156,-0.0371,-9.085,15.976,28.354,1.2223,100832.04
-0.8555,0.0625,-0.0088,-23.841,42.5,11.951,0.8578,100830.15
-0.8057,0.0474,0.0767,-45.671,42.683,-0.122,0.8107,100829.48
-0.9966,0.0596,0.0474,-71.341,29.207,-1.646,0.9995,100830.2
-1.105,0.0776,-0.1157,-70.854,17.134,4.085,1.1137,100830.27
-0.9873,0.1108,-0.1396,-52.378,-13.11,-9.817,1.0033,100829.68
-0.9204,0.0938,-0.3076,-50.427,-12.561,-20.793,0.975,100830.09
-0.9111,0.0801,-0.2842,-59.756,26.585,-21.585,0.9578,100829.77
-0.8452,0.1514,-0.0483,-88.841,24.939,-30.549,0.86,100830.77
-0.8657,0.1763,-0.0527,-100.0,-1.159,-34.146,0.8851,100830.94
-0.9209,0.1885,-0.1206,-114.451,-16.463,-29.207,0.9477,100831.4
-0.9351,0.2051,-0.2544,-123.293,-20.366,-18.171,0.9905,100831.02
-1.0786,0.1616,-0.3433,-115.427,-13.049,-6.159,1.1434,100831.34
-1.1284,0.1069,-0.4131,-99.634,14.634,-6.28,1.2064,100830.95
-1.1104,0.0391,-0.4048,-84.329,50.488,-16.524,1.1825,100830.55
-1.0127,0.0347,-0.3433,-77.012,56.951,-31.89,1.0699,100830.26
-0.9761,0.0615,-0.3486,-75.915,47.134,-41.28,1.0383,100830.38
-0.9443,0.1177,-0.3838,-81.22,37.317,-47.439,1.0261,100830.88
-1.1479,0.125,-0.1978,-87.622,45.122,-37.378,1.1715,100830.76
-1.3398,0.1377,0.2305,-79.878,56.89,-31.646,1.3665,100830.41
-0.959,0.0381,-0.0864,-82.012,56.646,-38.598,0.9636,100830.63
-0.8145,-0.04,-0.0264,-67.439,31.951,-28.049,0.8159,100830.09
-0.9678,-0.0098,0.1172,-70.671,-23.11,-28.902,0.9749,100830.39
-0.9126,0.0176,-0.1826,-92.744,-48.293,-38.171,0.9309,100829.4
-0.9268,0.0361,-0.2188,-94.695,-43.598,-27.866,0.9529,100829.76
-1.022,0.0391,-0.1982,-94.39,-31.22,-14.268,1.0418,100830.41
-1.0044,0.0693,-0.2295,-90.305,-24.39,-16.037,1.0326,100830.41
-0.9346,0.0674,-0.2715,-85.122,-12.683,-18.659,0.9755,100830.88
-0.9214,0.0303,-0.2324,-79.268,6.159,-11.037,0.9507,100830.73
-0.9131,0.0044,-0.2124,-73.659,12.622,-3.476,0.9375,100831.0
-0.9214,0.0229,-0.2383,-66.402,4.085,-0.976,0.952,100830.58
-0.9185,0.0542,-0.2749,-55.793,-0.61,0.0,0.9602,100830.51
-0.9595,0.0918,-0.2817,-44.756,1.098,1.951,1.0042,100830.72
-1.0293,0.1128,-0.3247,-35.183,-2.439,3.841,1.0852,100830.73
-1.0562,0.126,-0.3848,-23.659,-1.89,7.622,1.1311,100830.47
-1.0352,0.147,-0.519,-11.22,5.549,12.195,1.1673,100830.8
-1.0898,0.1133,-0.3877,6.22,28.354,19.634,1.1623,100830.66
-1.2866,0.041,-0.0923,12.988,28.902,22.988,1.2906,100830.2
-1.2778,0.0234,-0.082,-1.402,22.317,18.476,1.2807,100831.09
-0.8843,0.0635,-0.0884,-15.671,49.878,4.207,0.8909,100831.38
-0.9766,0.0474,-0.1685,-36.646,-11.829,-5.671,0.9921,100831.58
-0.9438,0.0615,-0.188,-24.939,-34.451,-15.244,0.9644,100830.65
-0.9062,0.0771,-0.2915,-27.866,-33.963,-22.317,0.9551,100830.41
-0.9307,0.0981,-0.3062,-39.207,-3.659,-16.768,0.9846,100829.88
-0.9487,0.145,-0.1626,-56.037,24.573,-13.11,0.9734,100829.83
-0.8818,0.1934,-0.1216,-71.646,20.488,-18.476,0.9109,100830.53
-0.8838,0.2129,-0.1387,-77.866,0.122,-18.841,0.9196,100831.17
-0.9233,0.2188,-0.2144,-78.963,-16.098,-10.915,0.9728,100831.3
-0.9663,0.1982,-0.29,-71.768,-21.037,-3.78,1.0282,100831.77
-1.0015,0.1538,-0.3701,-55.183,-15.427,-2.317,1.0787,100830.9
-1.0137,0.1172,-0.4028,-39.695,1.646,-7.866,1.0971,100830.83
-0.9941,0.0649,-0.4248,-33.293,21.89,-16.098,1.083,100830.93
-0.9805,0.0342,-0.4204,-29.939,37.134,-22.744,1.0673,100830.74
-0.959,0.042,-0.4131,-26.159,44.207,-28.902,1.045,100831.71
-1.1602,0.1079,-0.3701,-23.598,44.329,-27.805,1.2225,100831.72
-1.4121,0.1787,-0.1226,-29.573,53.902,-21.829,1.4286,100832.35
-1.042,0.1973,-0.0352,-36.402,44.39,-35.244,1.0611,100831.82
-0.688,0.0903,-0.0713,-25.793,11.768,-31.829,0.6975,100831.54
-0.8809,0.0308,0.0796,-11.341,-14.512,-14.329,0.885,100830.37
-0.9644,0.0854,-0.0581,-17.561,-44.634,-22.378,0.9699,100831.09
-1.0576,0.0796,-0.2158,-27.134,-57.866,-20.671,1.0823,100830.38
-1.0449,0.0566,-0.2085,-34.39,-42.866,-4.817,1.067,100830.34
-0.8882,0.0576,-0.2583,-40.0,-21.707,3.72,0.9268,100830.55
-0.9106,0.001,-0.2642,-32.195,-1.524,-2.195,0.9482,100831.31
-0.9351,0.0,-0.2163,-24.878,6.768,-2.195,0.9598,100831.27
-0.9365,0.0029,-0.2397,-22.5,8.537,3.11,0.9667,100831.35
-0.938,0.0098,-0.2646,-16.89,7.744,5.671,0.9747,100831.44
-0.9546,0.0122,-0.2983,-9.817,-1.463,1.707,1.0002,100831.34
-0.9556,0.0083,-0.335,-5.976,-0.61,1.707,1.0126,100831.42
-1.0327,0.0298,-0.3232,-6.098,6.098,4.207,1.0825,100831.61
-1.1025,0.0527,-0.4473,-10.427,0.366,5.061,1.191,100831.87
-1.2036,0.0635,-0.4199,-4.756,12.561,9.878,1.2763,100831.57
-1.3716,0.0444,-0.082,5.366,24.817,13.415,1.3748,100830.98
-1.1582,0.0601,-0.0005,-6.037,18.598,3.049,1.1598,100829.69
-0.7969,0.1284,0.0225,-18.963,5.732,-7.195,0.8075,100830.06
-0.8643,0.1709,0.0508,-29.085,4.634,6.098,0.8825,100830.72
-0.998,0.1519,-0.0625,-25.854,2.195,17.927,1.0115,100830.2
-0.9326,0.1279,-0.105,-3.293,-15.732,9.39,0.9472,100829.33
-0.9209,0.0767,-0.1587,16.646,-39.573,-6.585,0.9376,100829.3
-0.8726,0.0518,-0.3086,19.329,-35.366,-14.573,0.927,100829.4
-0.8721,0.0933,-0.2744,11.707,-5.488,-9.878,0.919,100829.7
-0.8735,0.1528,-0.1533,-3.537,7.317,-7.378,0.9,100829.09
-0.9253,0.1616,-0.2051,-14.756,-7.744,-9.024,0.9614,100829.48
-0.9331,0.1299,-0.2944,-12.561,-11.585,-11.159,0.987,100830.4
-0.9507,0.1021,-0.2822,-4.024,-3.293,-8.354,0.9969,100831.06
-0.9878,0.1152,-0.2368,1.768,4.207,-7.805,1.0223,100830.73
-1.0181,0.1343,-0.2783,2.012,9.451,-11.829,1.0639,100831.09
-1.0068,0.1143,-0.3721,2.195,15.732,-12.195,1.0794,100831.35
-1.0151,0.1201,-0.4468,2.988,20.61,-7.988,1.1156,100831.66
-1.1035,0.1357,-0.3364,6.646,23.171,-5.793,1.1616,100831.8
-1.314,0.1362,-0.1021,7.622,12.866,0.915,1.3249,100832.36
-1.1855,0.0845,-0.125,-3.293,18.049,1.524,1.1951,100832.3
-0.8755,-0.0234,0.042,-5.061,30.854,-1.463,0.8768,100831.65
-0.8608,-0.0952,0.0845,-8.354,15.854,-0.976,0.8702,100830.91
-0.9277,-0.0581,-0.0054,-14.268,-11.159,-7.5,0.9296,100830.51
-0.9482,-0.0186,-0.1138,-19.451,-33.171,-14.146,0.9552,100830.69
-1.019,0.022,-0.21,-19.329,-36.585,-4.329,1.0407,100831.55
-0.9507,0.0791,-0.2524,-11.951,-26.098,-0.183,0.9868,100830.98
-0.9194,0.0581,-0.252,-3.171,-14.085,-3.476,0.9551,100830.29
-0.9141,-0.0073,-0.2065,-0.122,-2.073,-5.244,0.9371,100830.27
-0.8833,-0.0537,-0.1943,-1.951,2.256,0.366,0.906,100830.38
-0.917,-0.0605,-0.2012,-1.22,-3.415,7.622,0.9408,100830.6
-0.9536,-0.021,-0.2759,1.037,-10.061,6.951,0.9929,100830.51
-0.9595,0.0166,-0.2979,6.646,-8.415,3.232,1.0048,100830.7
-1.0181,0.0073,-0.2402,9.817,-5.793,3.537,1.0461,100831.69
-1.106,0.0527,-0.4111,14.207,-7.012,6.098,1.1811,100831.56
-1.0566,0.0537,-0.4258,25.793,11.341,7.561,1.1405,100830.75
-1.2017,0.0122,-0.1401,38.354,26.829,15.671,1.2099,100831.34
-1.2964,0.0068,0.1396,41.159,27.256,17.317,1.3039,100831.09
-0.9678,0.0962,0.0737,27.5,26.159,0.305,0.9753,100831.74
-0.876,0.1089,0.0518,14.329,20.183,-2.134,0.8842,100831.35
-1.0127,0.0898,0.0415,4.268,3.72,10.366,1.0175,100831.55
-0.9761,0.0762,-0.0825,8.11,-18.11,18.537,0.9825,100831.83
-0.9541,0.0449,-0.1494,19.573,-43.415,11.28,0.9668,100831.29
-0.9229,0.0039,-0.3784,16.463,-33.659,0.366,0.9974,100831.26
-0.8584,0.0459,-0.2993,5.854,19.817,-2.439,0.9102,100831.13
-0.8286,0.1172,-0.1206,-10.671,28.963,-3.232,0.8455,100831.26
-0.9194,0.1343,-0.1748,-22.927,1.524,-1.951,0.9455,100832.0
-0.9775,0.1118,-0.2905,-25.183,-14.451,0.793,1.0259,100831.66
-0.9863,0.0835,-0.3765,-21.951,-13.415,1.463,1.059,100831.42
-0.9922,0.0532,-0.3506,-13.415,-1.037,-2.866,1.0537,100831.61
-0.9341,0.0679,-0.2808,-4.146,12.012,-10.671,0.9777,100831.87
-0.9321,0.0801,-0.2642,-1.402,14.268,-12.866,0.9721,100832.3
-0.9751,0.0615,-0.3198,-3.537,11.098,-10.427,1.0281,100831.78
-0.9912,0.063,-0.4165,-6.341,9.878,-8.415,1.077,100831.2
-1.0518,0.1177,-0.4087,-9.695,8.78,-10.732,1.1345,100831.7
-1.2412,0.1567,-0.2144,-15.976,15.183,-6.402,1.2693,100832.07
-1.3594,0.1558,-0.0449,-20.549,27.134,1.707,1.369,100831.74
-0.8955,0.0728,-0.0762,-15.427,34.634,-11.098,0.9017,100831.34
-0.7891,-0.019,-0.0312,-0.793,34.207,-5.183,0.7899,100831.17
-0.9316,-0.0254,0.04,10.61,9.634,1.768,0.9328,100831.04
-1.0122,0.0186,-0.0435,9.146,-27.805,-6.22,1.0133,100830.58
-1.0498,0.0083,-0.1841,2.927,-48.049,-8.171,1.0659,100830.95
-0.9927,0.0044,-0.2222,-0.854,-46.524,-0.122,1.0172,100830.61
-0.9058,-0.0024,-0.3027,-1.037,-32.317,3.232,0.955,100830.0
-0.8892,-0.0137,-0.2788,3.049,-10.915,-0.061,0.9319,100829.67
-0.9048,-0.0112,-0.208,1.951,-1.463,-0.915,0.9285,100829.3
-0.936,-0.0049,-0.2114,-1.707,-3.11,2.683,0.9596,100829.77
-0.9712,-0.0005,-0.2324,-0.732,-6.037,7.805,0.9986,100830.59
-0.9565,0.0103,-0.3037,2.561,-8.72,7.988,1.0037,100830.72
-0.9482,-0.0015,-0.2979,7.439,-4.085,6.402,0.9939,100830.34
-0.96,-0.0005,-0.2334,9.756,2.805,6.28,0.9879,100831.02
-0.9849,0.0146,-0.2925,8.354,3.902,7.073,1.0275,100830.8
-1.0781,-0.0127,-0.375,11.829,1.707,12.805,1.1416,100830.66
-1.1226,-0.0156,-0.4673,20.0,0.061,13.11,1.216,100831.02
-1.187,0.02,-0.2993,29.817,14.146,11.28,1.2243,100831.05
-1.2759,0.0234,-0.0508,28.78,25.915,10.915,1.2771,100830.7
-1.0771,0.0645,-0.0249,18.659,24.39,-1.28,1.0794,100830.84
-0.8555,0.1738,-0.0342,11.829,32.317,-8.476,0.8736,100830.45
-0.9199,0.1875,-0.0034,14.756,31.159,2.683,0.9388,100830.38
-0.9707,0.1763,-0.0513,25.793,10.549,16.89,0.9879,100831.19
-0.9116,0.1313,-0.1045,37.317,-27.805,14.268,0.9269,100830.69
-0.894,0.0205,-0.2437,35.915,-53.049,5.061,0.9269,100830.45
-0.9395,-0.0117,-0.4609,23.476,-30.549,7.134,1.0465,100830.74
-0.9038,0.0571,-0.2612,10.671,20.122,7.927,0.9425,100830.85
-0.8462,0.1104,-0.1533,-5.732,16.768,1.22,0.867,100830.79
-0.897,0.1387,-0.208,-15.793,-12.256,-6.22,0.9312,100830.38
-0.9546,0.1177,-0.3604,-23.232,-21.463,-6.707,1.0271,100830.93
-0.981,0.0845,-0.3672,-22.988,-6.768,-1.768,1.0508,100830.97
-0.9766,0.0947,-0.3149,-16.951,9.207,-3.293,1.0305,100830.78
-0.9541,0.1143,-0.3179,-10.061,15.305,-9.573,1.0121,100831.96
-0.9473,0.1201,-0.4028,-6.585,17.134,-11.159,1.0363,100831.98
-0.9746,0.1543,-0.4429,-5.976,21.098,-9.512,1.0816,100830.91
-1.1924,0.1885,-0.3242,-4.939,21.098,-5.488,1.25,100831.55
-1.4336,0.1748,-0.0854,-4.695,20.549,1.89,1.4467,100831.7
-1.0503,0.0698,-0.2524,-11.463,22.134,-5.366,1.0825,100831.55
-0.7598,-0.0044,-0.0015,1.524,21.037,-5.549,0.7598,100831.18
-0.8081,-0.042,0.0361,4.634,3.049,-3.72,0.81,100832.12
-0.9209,-0.0361,-0.0693,2.927,-16.89,-7.927,0.9242,100832.12
-1.0571,-0.0332,-0.1572,-0.732,-37.012,-4.146,1.0693,100832.13
-1.083,-0.0195,-0.2368,-5.793,-48.049,4.024,1.1088,100831.41
-0.9863,0.0371,-0.3179,-4.268,-45.854,4.329,1.0369,100830.85
-0.9131,0.0566,-0.3301,2.5,-20.427,-0.549,0.9726,100830.07
-0.8662,0.0298,-0.2114,6.463,10.122,-1.098,0.8921,100829.97
-0.8584,-0.0205,-0.1743,3.78,10.061,5.427,0.8762,100830.88
-0.9219,-0.0361,-0.1543,1.037,-3.049,12.622,0.9354,100830.43
-0.9756,-0.0088,-0.2354,0.732,-20.732,12.561,1.0036,100831.09
-1.0054,0.0107,-0.3335,6.89,-27.805,7.744,1.0593,100830.62
-1.0166,0.0034,-0.2832,12.439,-10.0,3.476,1.0553,100830.26
-1.0078,0.0132,-0.2559,6.707,-0.427,2.561,1.0399,100830.12
-1.0142,0.0322,-0.3252,-4.573,-3.11,4.695,1.0655,100830.01
-1.0518,0.0439,-0.4141,-9.39,-1.28,9.39,1.1312,100830.29
-1.1187,0.0659,-0.354,-2.561,6.768,12.012,1.1752,100830.98
-1.3545,0.0361,-0.0864,7.134,11.951,13.11,1.3577,100831.64
-1.1968,0.0063,-0.021,5.0,23.232,4.085,1.197,100830.67
-0.8286,0.0562,0.0034,-0.61,41.89,-2.439,0.8305,100830.3
-0.8823,0.0776,0.0566,-5.366,38.537,2.317,0.8875,100830.88
-0.9614,0.063,-0.0039,-3.232,13.902,1.829,0.9635,100831.07
-0.981,0.0767,-0.061,10.0,-15.976,0.427,0.9858,100831.6
-0.9575,0.064,-0.1284,18.963,-49.207,-7.744,0.9682,100831.48
-0.9644,0.019,-0.4248,14.634,-51.402,-6.768,1.0539,100831.05
-1.0137,0.0073,-0.4912,2.561,4.878,7.073,1.1264,100831.08
-0.8672,0.063,-0.1748,-7.439,49.634,1.951,0.8869,100831.06
-0.812,0.0815,-0.1211,-18.293,25.061,-7.134,0.825,100831.43
-0.8867,0.063,-0.1641,-25.183,-6.463,-7.317,0.904,100830.98
-0.9185,0.0684,-0.2446,-32.683,-19.695,-4.207,0.9529,100830.78
-0.9731,0.0542,-0.3511,-37.134,-17.378,0.549,1.036,100830.98
-1.0352,0.0386,-0.4038,-34.207,1.22,3.963,1.1118,100830.91
-1.0278,0.0776,-0.3682,-26.402,24.329,-2.805,1.0945,100831.08
-0.9707,0.0762,-0.3594,-24.146,33.476,-11.768,1.0379,100830.36
-0.9663,0.0811,-0.3423,-26.098,26.037,-16.22,1.0283,100830.67
-1.1724,0.1401,-0.2974,-30.183,10.61,-14.817,1.2176,100830.16
-1.3433,0.1558,-0.1519,-33.659,19.878,-10.122,1.3608,100830.27
-1.0112,0.0376,-0.1523,-33.11,46.768,-11.098,1.0233,100830.73
-0.7832,-0.0669,-0.0259,-20.854,42.683,-7.5,0.7865,100831.18
-1.021,-0.0171,-0.0459,-17.744,-23.171,-15.122,1.0222,100829.96
-1.0425,0.0107,-0.2007,-23.963,-50.183,-17.012,1.0617,100830.22
-1.0166,0.0244,-0.2744,-27.805,-59.146,-5.061,1.0533,100830.08
-0.9355,0.0073,-0.2612,-23.11,-48.415,1.22,0.9714,100830.91
-0.9351,-0.0127,-0.27,-18.72,-30.305,-3.049,0.9733,100830.7
-0.9326,-0.0176,-0.2393,-20.061,-6.463,-7.866,0.963,100830.18
-0.9312,-0.0273,-0.2104,-24.085,6.524,-2.134,0.955,100830.27
-0.9585,-0.0068,-0.2305,-17.805,-6.829,8.171,0.9858,100830.77
-0.9697,-0.0127,-0.2485,-8.598,-12.134,5.976,1.0011,100830.45
-0.9878,-0.0068,-0.2705,-4.146,-6.098,3.232,1.0242,100830.84
-0.9917,0.0044,-0.2778,-5.427,3.232,3.537,1.0299,100830.65
-0.9902,-0.0117,-0.3779,-11.585,8.476,9.085,1.06,100830.75
-1.0776,-0.0303,-0.3862,-12.866,12.012,17.805,1.1452,100831.43
-1.354,-0.0166,-0.1509,-7.5,25.122,27.927,1.3625,100830.73
-1.3398,0.0078,-0.0366,-11.829,32.134,19.695,1.3404,100829.56
-0.9194,0.0317,-0.1001,-22.683,29.39,-1.22,0.9254,100829.56
-0.7524,0.0918,0.0088,-31.951,28.232,-7.683,0.7581,100829.43
-0.8032,0.0986,-0.0166,-47.5,24.024,-4.573,0.8094,100829.7
-1.0444,0.0869,-0.0176,-49.451,9.817,5.915,1.0482,100829.66
-1.105,0.1255,-0.0938,-48.049,-13.232,-0.061,1.116,100829.5
-1.0283,0.1074,-0.1958,-49.634,-29.695,-10.671,1.0523,100830.0
-0.9219,0.0625,-0.3008,-59.695,-13.415,-12.561,0.9717,100830.12
-0.8809,0.0835,-0.208,-70.549,22.622,-10.61,0.9089,100829.83
-0.9072,0.1294,-0.1094,-81.463,24.634,-14.146,0.9229,100829.25
-0.9614,0.1621,-0.126,-87.439,8.598,-16.951,0.9831,100829.66
-0.9634,0.1533,-0.1621,-87.744,-0.366,-15.854,0.9889,100829.24
-0.9434,0.1362,-0.1953,-84.268,-7.561,-14.268,0.973,100830.16
-0.9375,0.1567,-0.2612,-76.098,-10.671,-14.817,0.9858,100830.23
-0.9873,0.1577,-0.3291,-62.134,-4.024,-12.805,1.0526,100831.18
-1.0093,0.1274,-0.3101,-45.976,12.927,-11.707,1.0635,100830.62
-1.0044,0.063,-0.2856,-35.366,23.841,-15.671,1.0461,100830.22
-0.9897,-0.0239,-0.3799,-40.915,27.561,-25.671,1.0604,100830.16
-0.9741,-0.0142,-0.374,-49.756,32.866,-28.963,1.0436,100830.12
-1.0913,0.0391,-0.3057,-58.963,36.037,-31.22,1.134,100829.61
-1.2949,0.1196,-0.0747,-59.939,36.037,-27.805,1.3026,100829.95
-1.144,0.1162,-0.0396,-59.146,33.232,-33.78,1.1506,100830.22
-0.708,0.0547,-0.0884,-46.951,32.927,-37.317,0.7156,100829.79
-0.7954,0.064,0.0801,-35.488,9.207,-24.146,0.802,100830.33
-0.9814,0.0972,-0.064,-42.439,-35.976,-20.427,0.9883,100829.66
-1.1064,0.0918,-0.1851,-44.268,-58.293,-14.573,1.1256,100830.24
-1.1436,0.0845,-0.2773,-44.268,-54.329,-4.939,1.1797,100829.56
-0.9185,0.0664,-0.3188,-38.902,-24.024,-4.512,0.9745,100829.81
-0.8228,0.0317,-0.2358,-32.866,0.427,-3.232,0.8565,100830.34
-0.876,0.0015,-0.2124,-31.585,1.707,2.988,0.9014,100829.66
-0.9683,-0.02,-0.2041,-27.317,-1.159,9.756,0.9897,100829.49
-0.9985,-0.0405,-0.2275,-22.622,-7.256,9.695,1.0249,100829.28
-0.9517,-0.0376,-0.2954,-18.049,-11.89,4.573,0.9972,100829.73
-0.9595,-0.022,-0.3022,-13.963,-6.524,0.854,1.0062,100829.8
-0.9995,0.0029,-0.2422,-14.512,3.902,0.793,1.0284,100830.47
-1.0024,0.0195,-0.2422,-20.122,8.537,3.171,1.0315,100830.1
-0.9985,0.0054,-0.3379,-25.061,8.354,8.78,1.0542,100830.48
-0.9941,-0.0122,-0.4248,-24.512,10.427,13.537,1.0812,100830.48
-1.2085,-0.0161,-0.2935,-16.159,22.134,18.598,1.2437,100829.99
-1.3062,-0.0098,-0.165,-10.244,44.939,13.902,1.3166,100830.22
-1.0454,0.0205,-0.0947,-9.939,48.293,-3.902,1.0499,100829.7
-0.8218,0.147,0.0093,-34.329,19.451,-10.61,0.8349,100828.35
-1.0195,0.1655,-0.0518,-44.512,28.354,9.756,1.0342,100828.52
-1.0894,0.2017,-0.1582,-37.988,-2.256,7.195,1.1191,100828.75
-0.9927,0.1562,-0.2505,-26.341,-33.902,-7.073,1.0356,100829.06
-0.8887,0.0938,-0.3188,-25.976,-28.232,-11.098,0.9488,100828.42
-0.853,0.0859,-0.374,-32.378,-3.902,-8.171,0.9354,100827.83
-0.8623,0.1353,-0.2002,-33.171,10.0,-8.841,0.8955,100828.23
-0.9126,0.1792,-0.1973,-40.61,-5.122,-9.878,0.9507,100829.16
-0.9321,0.1572,-0.2725,-43.049,-14.817,-9.878,0.9838,100829.27
-0.9258,0.1206,-0.3013,-38.476,-13.049,-7.622,0.981,100829.68
-0.9775,0.0972,-0.3403,-30.061,-7.622,-6.22,1.0396,100829.52
-1.0312,0.0879,-0.3457,-19.268,3.171,-6.707,1.0912,100829.39
-1.0322,0.063,-0.3555,-14.207,18.293,-9.573,1.0935,100829.54
-0.9814,0.0273,-0.3872,-17.805,29.939,-13.354,1.0554,100829.27
-0.9438,0.0464,-0.4033,-27.256,30.305,-20.732,1.0275,100828.69
-1.0098,0.0898,-0.4111,-39.268,24.756,-28.11,1.094,100828.99
-1.1904,0.1274,-0.1948,-45.793,29.39,-23.232,1.213,100829.57
-1.3955,0.1055,-0.1011,-53.415,41.28,-17.866,1.4031,100829.29
-0.9639,-0.0063,-0.1489,-50.549,32.561,-35.488,0.9753,100828.98
-0.6855,-0.0322,-0.0098,-38.171,9.024,-41.28,0.6864,100828.75
-0.7881,-0.0205,0.0552,-46.646,-8.598,-35.671,0.7903,100829.15
-0.9966,0.0059,-0.1558,-67.988,-25.427,-29.207,1.0087,100828.97
-1.1089,0.0205,-0.2363,-73.415,-44.817,-22.195,1.134,100828.6
-1.0811,0.0386,-0.2935,-70.671,-49.878,-13.476,1.1208,100829.31
-0.8652,-0.0112,-0.2998,-46.646,-11.28,-17.012,0.9158,100830.12
-0.8569,-0.0757,-0.2124,-46.098,6.646,-14.329,0.8861,100829.61
-0.8979,-0.1001,-0.2051,-52.073,6.341,-3.354,0.9265,100829.2
-0.9321,-0.0693,-0.2144,-52.561,0.549,1.402,0.959,100829.41
-0.9458,-0.0166,-0.2622,-47.927,-9.756,-1.829,0.9816,100830.06
-0.9937,0.0132,-0.269,-41.22,-10.488,-1.951,1.0295,100830.32
-1.043,0.0615,-0.2778,-37.012,-10.122,1.707,1.0811,100830.73
-1.0693,0.1118,-0.3599,-34.512,-17.195,8.598,1.1338,100831.06
-1.0195,0.1523,-0.4678,-26.707,-9.756,16.524,1.132,100830.82
-1.0469,0.082,-0.3833,-10.671,12.622,23.78,1.1179,100830.3
-1.1567,-0.0332,-0.1372,-0.976,28.476,30.0,1.1653,100830.0
-1.2144,-0.0552,-0.0298,-7.378,36.28,25.427,1.216,100830.66
-1.0527,-0.0059,0.0068,-18.78,42.073,3.354,1.0528,100830.77
-1.1089,-0.0278,-0.04,-30.976,26.22,-0.915,1.11,100830.38
-1.0527,0.0059,-0.1338,-32.073,2.439,0.854,1.0612,100829.48
-0.8442,0.0596,-0.1655,-21.098,-18.415,-8.049,0.8624,100829.89
-0.7734,0.0698,-0.2173,-17.134,-27.927,-15.0,0.8064,100830.09
-0.8755,0.0557,-0.2402,-35.549,14.268,-5.61,0.9096,100829.62
-0.8599,0.0977,-0.125,-46.829,14.939,-8.415,0.8744,100829.75
-0.9106,0.1641,-0.1846,-55.549,-12.134,-14.085,0.9435,100830.36
-1.0396,0.1724,-0.3574,-59.451,-28.659,-11.402,1.1127,100830.05
-1.0732,0.1187,-0.4209,-51.707,-9.634,-3.537,1.1589,100829.24
-1.0078,0.105,-0.3071,-34.024,23.049,-3.232,1.0588,100829.6
-0.9805,0.1143,-0.3076,-22.622,33.049,-10.0,1.0339,100829.26
-0.9673,0.1108,-0.415,-13.415,24.329,-12.805,1.0584,100829.78
-1.0522,0.1387,-0.457,-13.841,23.902,-10.915,1.1556,100829.4
-1.3262,0.1016,-0.2651,-16.89,52.927,3.415,1.3562,100829.71
-1.2339,0.0664,-0.0283,-17.134,59.451,-7.622,1.236,100829.58
-0.7905,-0.0215,0.0112,-16.585,27.317,-30.244,0.7909,100829.15
-0.8223,-0.0586,0.0566,-25.671,2.927,-19.634,0.8263,100830.25
-0.9951,0.0127,-0.1069,-43.415,-15.976,-11.89,1.0009,100830.02
-0.9717,0.061,-0.2432,-44.756,-36.524,-11.89,1.0035,100829.73
-0.9673,0.0903,-0.2778,-40.061,-43.841,-4.573,1.0104,100829.99
-0.8911,0.0981,-0.4277,-33.232,-39.39,-6.707,0.9933,100830.44
-0.9448,0.0298,-0.4116,-17.866,-8.78,-8.537,1.031,100830.41
-0.9512,-0.0093,-0.2988,-10.488,24.207,-9.329,0.9971,100830.86
-0.9194,-0.0283,-0.2622,-12.744,29.512,-7.256,0.9565,100830.6
-0.8555,-0.0244,-0.2056,-16.768,7.5,-5.854,0.8802,100830.75
-0.8467,0.0386,-0.29,-25.061,-6.646,-1.524,0.8958,100830.86
-0.9414,0.0322,-0.4238,-24.024,-9.085,6.037,1.0329,100830.69
-1.021,0.0083,-0.3618,-11.707,-4.695,10.244,1.0832,100831.45
-1.0249,0.0181,-0.4019,-7.5,-4.329,9.817,1.101,100830.77
-0.9941,0.0322,-0.5269,-5.061,-4.512,6.22,1.1256,100830.15
-1.0293,0.0093,-0.5156,6.098,9.512,9.451,1.1513,100830.66
-1.1924,0.0161,-0.1787,19.451,19.207,15.793,1.2058,100830.56
-1.2651,0.0923,-0.0288,10.244,19.512,13.049,1.2688,100830.12
