ax,ay,az,gx,gy,gz,avm,pressure
-0.9438,-0.168,-0.0752,21.463,-11.646,7.683,0.9616,100826.62
-0.9033,-0.1694,-0.2866,29.146,-8.72,8.11,0.9627,100826.47
-0.9116,-0.145,-0.1367,50.549,-20.671,10.793,0.9332,100825.27
-0.7896,-0.0781,-0.0894,32.317,8.11,4.878,0.7984,100825.7
-0.8564,-0.0942,-0.186,19.695,27.927,12.805,0.8815,100825.9
-0.894,-0.1123,-0.1621,14.268,33.963,16.646,0.9155,100826.06
-0.9014,-0.1411,-0.3081,2.622,28.293,11.768,0.963,100825.2
-0.8794,-0.1191,-0.3809,0.366,24.451,6.341,0.9657,100825.92
-1.0127,-0.146,-0.3501,-7.683,36.28,10.915,1.0814,100825.84
-1.1255,-0.1216,-0.4609,-12.256,51.28,22.195,1.2223,100826.16
-1.2271,-0.0981,-0.4844,-8.72,31.402,27.683,1.3228,100826.88
-1.2144,-0.0903,-0.3916,-6.037,-7.683,11.646,1.2791,100826.67
-1.1509,-0.0488,-0.0957,3.354,-36.463,6.89,1.1559,100826.88
-1.1128,-0.04,0.1206,16.28,0.793,19.39,1.12,100826.06
-0.9126,-0.0112,-0.0073,16.768,31.707,17.622,0.9127,100826.34
-0.9346,0.019,-0.0884,21.585,4.695,14.085,0.9389,100826.41
-1.0093,-0.0151,-0.0981,29.39,1.951,20.366,1.0142,100826.22
-0.9678,-0.0684,-0.1943,21.098,-18.841,15.61,0.9895,100824.97
-0.7822,-0.0615,-0.21,8.598,-34.817,3.659,0.8122,100825.24
-0.7979,-0.0532,-0.2695,2.012,-30.061,3.963,0.8438,100824.34
-0.8516,-0.0459,-0.2783,0.244,-6.707,3.293,0.8971,100824.52
-0.8462,-0.0044,-0.3218,-11.037,16.159,-4.39,0.9053,100824.77
-0.8892,0.0381,-0.3228,-18.841,22.988,-10.122,0.9467,100826.2
-0.9663,0.0493,-0.3516,-22.012,21.098,-12.622,1.0295,100826.38
-1.1348,-0.0469,-0.3989,-18.902,14.329,-9.146,1.2038,100826.24
-1.0635,-0.0776,-0.5444,-18.963,-1.89,-20.122,1.1973,100826.52
-1.0054,-0.064,-0.5845,-22.622,-12.866,-23.537,1.1647,100826.48
-1.1777,-0.0596,-0.3076,-26.89,1.098,-22.927,1.2187,100825.87
-1.2407,-0.127,0.0498,-31.768,46.768,-17.683,1.2482,100825.4
-0.9082,-0.126,0.0332,-36.829,52.561,-15.732,0.9175,100825.64
-0.9561,-0.1191,-0.1245,-35.854,12.134,3.415,0.9715,100825.71
-1.0464,-0.1035,-0.04,-31.646,-12.439,3.476,1.0523,100825.62
-0.9385,-0.1016,-0.1768,-45.427,-36.89,-7.256,0.9604,100824.82
-0.873,-0.1152,-0.2832,-51.768,-57.012,-8.415,0.925,100825.32
-0.834,-0.1177,-0.2134,-48.049,-73.354,-13.049,0.8689,100826.06
-0.7939,-0.0835,-0.2896,-52.317,-58.902,-14.573,0.8492,100826.52
-0.8252,-0.0898,-0.292,-49.939,-17.988,-4.39,0.8799,100826.12
-0.9102,-0.1221,-0.2856,-45.976,10.671,3.78,0.9617,100827.05
-0.8994,-0.1436,-0.3169,-44.817,12.5,2.134,0.9644,100826.04
-0.9858,-0.1519,-0.3818,-47.439,7.744,1.341,1.0681,100826.84
-1.1255,-0.144,-0.3481,-47.561,12.683,-5.305,1.1869,100826.74
-1.145,-0.1377,-0.3984,-42.378,5.854,-9.451,1.2202,100827.14
-1.1353,-0.1401,-0.5054,-32.012,2.866,-1.646,1.2505,100826.94
-1.188,-0.1934,-0.2236,-24.512,4.146,1.646,1.2242,100826.32
-1.3521,-0.1821,0.3774,-24.451,29.573,9.451,1.4155,100825.72
-1.104,-0.0786,0.0903,-54.085,28.72,-8.902,1.1105,100825.52
-0.8916,-0.1509,-0.1616,-71.524,13.841,-28.171,0.9186,100825.12
-1.0361,-0.124,-0.0737,-62.195,-18.049,-12.988,1.0461,100824.8
-0.9414,-0.1411,-0.2407,-67.805,-38.293,-34.146,0.9819,100824.7
-0.7671,-0.1704,-0.2051,-72.5,-33.78,-40.671,0.8121,100824.86
-0.8662,-0.1187,-0.1831,-89.634,0.0,-18.476,0.8933,100825.35
-0.9292,-0.0737,-0.1602,-109.451,24.817,-10.732,0.9458,100825.84
-0.9971,-0.0747,-0.2222,-126.463,20.793,-9.878,1.0243,100825.59
-1.0688,-0.0581,-0.3613,-130.549,8.598,-9.329,1.1298,100825.86
-0.9175,-0.0449,-0.3579,-116.951,24.085,-6.89,0.9858,100825.57
-0.8286,-0.0732,-0.3457,-104.268,46.402,1.037,0.9008,100825.35
-0.938,-0.0815,-0.4165,-100.732,55.366,1.159,1.0295,100825.45
-1.127,-0.1221,-0.4927,-95.549,36.22,-12.744,1.236,100826.12
-0.9844,-0.1343,-0.4502,-82.805,2.866,-42.988,1.0907,100826.27
-0.9468,-0.2163,-0.4058,-70.915,-41.22,-60.061,1.0525,100826.77
-1.1958,-0.2681,-0.0469,-65.854,-37.744,-54.207,1.2264,100826.27
-1.2593,-0.2354,0.1074,-88.293,31.585,-49.573,1.2856,100826.5
-0.957,-0.2559,-0.0703,-107.927,30.122,-62.378,0.9931,100826.09
-0.8433,-0.2222,-0.0879,-110.854,7.012,-45.671,0.8765,100826.62
-0.9478,-0.1606,-0.1362,-114.146,3.415,-25.366,0.9709,100826.41
-0.8447,-0.1274,-0.2324,-122.744,-27.561,-32.378,0.8853,100825.45
-0.7944,-0.0996,-0.1982,-123.415,-42.5,-30.793,0.8248,100824.91
-0.8486,-0.0796,-0.2383,-118.232,-27.439,-13.354,0.885,100824.62
-0.8486,-0.043,-0.2573,-108.841,-15.671,-4.268,0.8878,100824.75
-0.9321,-0.0474,-0.3252,-93.476,-24.146,0.183,0.9884,100824.51
-1.0396,-0.0747,-0.4697,-76.22,-26.098,-2.195,1.1432,100825.03
-1.0586,-0.1323,-0.5654,-55.549,-22.805,-7.256,1.2074,100826.78
-1.0439,-0.1689,-0.5449,-40.244,-7.256,-3.293,1.1897,100827.84
-1.1885,-0.1372,-0.5293,-34.817,3.171,15.244,1.3082,100827.77
-1.1069,-0.0776,-0.3984,-35.305,2.866,17.012,1.179,100828.69
-1.2344,-0.0928,0.1265,-28.293,36.524,22.256,1.2443,100829.04
-1.335,0.0464,0.3369,-24.512,32.622,3.659,1.3776,100827.69
-0.9277,0.1406,-0.0947,-51.463,0.366,-23.72,0.9431,100827.69
-0.8784,0.0156,-0.1333,-56.585,-32.561,-17.744,0.8886,100827.16
-0.9634,-0.0308,-0.1143,-44.939,-32.988,-11.707,0.9706,100828.12
-0.9287,0.0063,-0.1514,-39.146,-7.927,-15.854,0.941,100827.35
-0.8989,-0.0034,-0.1636,-43.476,-2.866,-19.512,0.9137,100826.55
-0.9697,0.0122,-0.1011,-46.89,-17.012,-28.72,0.9751,100825.68
-0.8916,0.0347,-0.1382,-47.744,-29.451,-39.39,0.9029,100825.01
-0.7339,0.0547,-0.1992,-52.134,-25.671,-30.854,0.7624,100825.05
-0.9248,0.0811,-0.3032,-54.817,-10.366,-6.341,0.9766,100825.65
-0.9561,0.0449,-0.3389,-48.171,7.134,-2.561,1.0153,100825.73
-0.9414,0.0283,-0.2993,-39.024,27.134,-2.378,0.9883,100825.41
-1.0674,0.0352,-0.2974,-36.585,31.098,4.817,1.1086,100825.29
-1.2285,0.0015,-0.3511,-35.183,15.671,3.049,1.2777,100825.71
-1.1216,-0.0073,-0.5015,-27.317,5.732,-7.927,1.2286,100825.28
-1.1953,-0.0229,-0.3032,-14.146,8.963,-11.707,1.2334,100826.31
-1.395,-0.0059,0.2427,-8.049,19.207,-12.256,1.416,100825.88
-1.1201,-0.0513,0.1836,-21.463,27.744,-22.5,1.1362,100826.88
-0.792,-0.0659,0.0776,-17.744,-1.89,-18.293,0.7985,100826.92
-0.9683,-0.0327,-0.0293,-12.805,-30.488,0.305,0.9693,100826.31
-0.8008,-0.0444,-0.1631,-7.134,-27.988,-4.268,0.8184,100826.12
-0.8218,-0.0493,-0.2178,-0.427,-28.354,1.402,0.8516,100825.87
-0.8418,-0.0649,-0.0664,5.976,-13.537,2.134,0.8469,100825.91
-0.9302,-0.0742,-0.1504,0.244,-12.439,5.244,0.9452,100824.94
-0.9341,-0.0693,-0.2549,3.72,-10.305,7.073,0.9707,100825.34
-0.9126,-0.0698,-0.2427,10.61,2.378,7.012,0.9469,100825.19
-1.0176,-0.0815,-0.229,6.829,8.232,4.817,1.0462,100825.28
-0.9146,-0.0518,-0.188,-4.085,6.098,4.207,0.9351,100825.37
-1.1333,0.0127,-0.2769,-17.683,2.561,20.549,1.1667,100825.41
-1.2524,0.022,-0.3623,-12.5,-11.707,18.598,1.304,100826.05
-1.1772,0.0542,-0.4878,1.951,-10.854,18.232,1.2755,100824.96
-1.2002,-0.0742,-0.2095,20.0,26.707,20.61,1.2206,100824.38
-1.2607,-0.1392,0.1113,22.927,53.78,20.366,1.2733,100824.7
-0.9146,-0.0239,0.1587,20.976,-5.732,-0.793,0.9285,100824.7
-0.7559,0.0542,0.438,19.085,-59.207,-18.232,0.8753,100824.43
-1.0645,0.1353,0.085,-29.817,3.354,5.305,1.0764,100824.84
-1.3467,0.0576,-0.5166,-18.354,-7.683,14.329,1.4435,100825.03
-0.7832,0.0088,-0.0352,21.829,-22.073,-12.195,0.784,100825.3
-0.7251,-0.1011,-0.1353,-3.293,-28.11,-7.378,0.7445,100824.1
-0.7837,-0.0776,-0.1294,-18.049,-9.695,-9.451,0.7981,100824.33
-0.7866,0.1011,-0.1543,-27.134,5.305,-10.549,0.808,100824.35
-0.8071,0.1899,-0.1841,-31.707,0.915,-12.5,0.8494,100824.99
-0.9399,0.1221,-0.3154,-32.622,2.5,-7.683,0.9989,100825.45
-1.0576,0.0024,-0.2832,-20.061,15.244,-7.561,1.0949,100825.22
-1.1382,-0.0078,-0.2407,-9.634,17.927,-10.427,1.1634,100825.01
-1.2432,-0.0024,-0.3257,-9.39,12.622,-11.037,1.2851,100826.07
-1.209,0.0,-0.5586,-10.61,5.732,-13.232,1.3318,100826.65
-1.2588,0.0342,-0.5015,-4.695,14.085,-11.829,1.3554,100826.37
-1.4272,0.0767,0.0918,4.329,35.366,-9.451,1.4322,100826.62
-1.2334,0.0303,0.2021,-0.976,45.61,-11.646,1.2502,100826.31
-0.8096,0.0054,0.0332,6.037,38.232,-9.329,0.8103,100825.97
-0.7012,0.0132,0.0435,21.829,17.683,-0.244,0.7026,100826.19
-0.79,-0.0229,0.1309,28.841,-3.354,5.915,0.8011,100825.77
-0.8384,-0.0322,-0.0674,15.122,-11.524,7.805,0.8417,100825.92
-0.8188,-0.02,-0.1177,17.134,-33.232,9.207,0.8275,100824.8
-0.7988,-0.0278,-0.0884,16.463,-47.256,14.512,0.8042,100825.68
-0.8643,-0.0728,-0.2563,12.012,-49.207,14.329,0.9044,100826.22
-0.9526,-0.105,-0.377,20.061,-21.951,13.72,1.0299,100826.24
-1.0049,-0.0874,-0.3306,27.805,15.793,13.659,1.0615,100826.64
-1.1016,-0.0342,-0.3735,24.817,30.915,8.171,1.1637,100826.43
-1.105,-0.0244,-0.2744,26.524,48.902,11.463,1.1388,100827.12
-1.1743,-0.0278,-0.3564,23.841,29.451,19.207,1.2275,100827.05
-1.0664,-0.0127,-0.5947,22.073,2.622,14.451,1.2211,100826.51
-1.314,-0.002,-0.1216,38.293,21.89,25.061,1.3196,100826.56
-1.5122,0.104,0.4146,33.232,47.927,27.439,1.5714,100826.28
-0.9106,0.1211,-0.0293,4.878,30.122,1.159,0.9191,100825.8
-0.8623,0.0327,-0.0483,14.024,6.524,0.427,0.8643,100824.95
-0.9238,-0.0283,0.0991,30.488,-16.585,6.28,0.9296,100824.09
-0.8555,-0.0513,-0.1401,24.695,-49.39,-1.89,0.8684,100824.28
-0.7485,-0.062,-0.2388,17.622,-59.756,-16.463,0.7881,100824.19
-0.7065,-0.0566,-0.1973,7.744,-42.439,-16.159,0.7357,100824.11
-0.8892,-0.0029,-0.2285,-8.171,-15.915,-8.963,0.9181,100824.42
-0.9443,0.0742,-0.2441,-20.732,-2.134,-7.317,0.9782,100825.25
-0.9619,0.1064,-0.2661,-27.378,-0.061,-8.78,1.0037,100825.62
-1.0479,0.0498,-0.3105,-27.073,6.585,-10.366,1.094,100825.44
-1.0776,0.019,-0.3384,-24.39,15.915,-7.439,1.1297,100825.54
-1.0737,0.063,-0.3906,-22.622,20.915,-3.902,1.1443,100825.83
-1.0811,0.0962,-0.4668,-15.549,21.159,-5.122,1.1815,100826.18
-1.1489,0.0737,-0.5532,-2.256,12.866,-11.341,1.2773,100826.45
-1.209,0.0278,-0.25,13.415,-2.439,-16.098,1.2349,100826.54
-1.3706,-0.0112,0.2627,7.805,14.268,-1.768,1.3956,100827.46
-1.105,-0.0781,0.123,-15.61,49.268,9.024,1.1146,100826.92
-0.8501,-0.0771,0.0103,-5.61,17.927,12.866,0.8537,100826.89
-0.8662,-0.0366,0.1074,4.207,-26.829,15.061,0.8736,100825.89
-0.8682,-0.0225,-0.0322,-11.707,-42.134,10.793,0.8691,100825.12
-0.8716,-0.0278,-0.2324,-16.28,-58.415,6.951,0.9025,100825.29
-0.8789,-0.0063,-0.312,-2.073,-47.683,6.707,0.9327,100824.68
-0.8677,-0.0259,-0.2148,13.598,-4.329,5.427,0.8943,100824.48
-0.8594,-0.0532,-0.1533,18.537,13.72,5.549,0.8746,100825.05
-0.8813,-0.0503,-0.1748,17.5,11.89,9.573,0.8999,100824.52
-0.9316,-0.0361,-0.2588,14.085,9.146,11.463,0.9676,100824.47
-0.9536,-0.042,-0.3525,10.854,3.963,7.927,1.0176,100825.29
-1.0405,-0.0259,-0.2852,9.39,2.805,4.939,1.0792,100825.66
-1.1514,0.0137,-0.3223,2.5,5.732,2.988,1.1957,100825.84
-1.2031,0.0342,-0.5381,-3.232,8.963,3.659,1.3184,100826.3
-1.2109,0.0303,-0.4219,4.573,13.415,12.5,1.2827,100826.52
-1.439,-0.0679,0.2529,17.439,34.878,33.049,1.4626,100826.59
-1.3047,0.0239,0.3862,-1.646,20.183,18.841,1.3609,100825.41
-0.7441,0.0522,-0.0396,-27.744,-11.829,-10.427,0.747,100825.61
-0.8564,-0.0122,0.0229,-22.683,-22.195,-1.646,0.8568,100825.19
-0.9653,-0.062,-0.0005,-8.171,-35.305,6.89,0.9673,100825.22
-0.8208,-0.021,-0.1724,-3.171,-31.646,-3.902,0.839,100824.99
-0.7871,0.0,-0.147,-6.646,-23.902,-13.841,0.8007,100825.66
-0.873,0.0049,-0.1387,-16.768,-14.085,-12.378,0.884,100825.57
-0.916,0.043,-0.1958,-24.939,-7.317,-8.049,0.9377,100826.01
-0.9399,0.0605,-0.2358,-29.085,-1.037,-7.744,0.971,100826.2
-0.9727,0.0396,-0.2368,-30.0,12.622,-7.317,1.0019,100825.95
-0.9868,0.0239,-0.2422,-34.634,22.195,-6.341,1.0164,100825.66
-1.0264,-0.0029,-0.2124,-43.902,20.732,-6.585,1.0481,100826.41
-1.0352,-0.0132,-0.2646,-53.72,16.098,-8.293,1.0685,100826.39
-1.0991,0.0327,-0.4248,-54.878,10.854,-9.085,1.1788,100826.36
-1.1709,0.0317,-0.4971,-53.78,14.085,-14.817,1.2724,100826.46
-1.2144,-0.001,-0.1597,-55.854,8.841,-17.683,1.2248,100826.78
-1.3193,-0.0303,0.145,-61.707,4.695,-2.988,1.3276,100827.0
-1.2427,-0.1274,0.2051,-66.037,19.817,6.951,1.2659,100826.67
-0.8525,-0.1582,0.1255,-62.5,5.854,-1.829,0.8761,100826.09
-0.8882,-0.123,0.0732,-53.049,-18.171,-8.415,0.8997,100825.65
-0.8159,-0.0703,-0.0693,-51.768,-20.488,-22.622,0.8219,100825.2
-0.8052,-0.0649,-0.1313,-51.951,-20.488,-22.439,0.8184,100825.23
-0.8281,-0.0571,-0.1108,-48.476,-19.756,-13.293,0.8375,100825.86
-0.9639,-0.041,-0.1392,-43.354,-10.061,-4.512,0.9747,100825.34
-1.0122,-0.0527,-0.1992,-40.366,-10.427,-1.159,1.033,100825.19
-0.979,-0.0498,-0.2773,-39.024,-10.061,0.305,1.0187,100825.47
-0.875,-0.0156,-0.2583,-36.707,-2.622,3.11,0.9125,100825.41
-0.957,-0.0015,-0.1748,-34.634,-1.402,12.134,0.9729,100825.28
-1.1011,-0.0166,-0.2153,-29.39,-2.195,18.293,1.1221,100825.39
-1.1836,0.0098,-0.3926,-19.634,5.549,23.232,1.247,100825.38
-1.1704,-0.0156,-0.4395,-9.817,17.5,22.866,1.2503,100825.73
-1.1348,-0.1162,-0.1753,-6.098,26.768,19.878,1.1541,100825.36
-1.2559,-0.1079,0.2563,-2.195,26.524,22.378,1.2863,100824.96
-1.2061,0.0098,0.3706,-14.695,20.976,5.183,1.2617,100824.92
-0.9438,0.1064,0.125,-44.268,11.951,-11.585,0.958,100823.66
-0.9849,0.0464,-0.0435,-53.476,-20.061,-10.122,0.9869,100824.08
-1.019,-0.0557,-0.0273,-35.244,-24.024,-13.963,1.0209,100825.1
-0.9009,-0.1079,-0.0273,-37.378,-6.22,-11.28,0.9077,100825.62
-0.8203,-0.0273,-0.0781,-50.671,-11.28,-4.878,0.8245,100825.41
-0.8867,0.0396,-0.0596,-59.268,-17.683,1.402,0.8896,100824.98
-0.9668,0.0708,-0.0762,-69.024,-13.476,6.341,0.9724,100824.7
-0.9429,0.1421,-0.1392,-71.159,-5.427,-0.549,0.9636,100824.86
-0.9736,0.1367,-0.1562,-65.244,-4.573,-7.378,0.9955,100825.2
-0.9829,0.083,-0.1543,-57.927,-4.634,-9.146,0.9984,100826.45
-1.0146,-0.0371,-0.1113,-52.439,-0.976,-2.378,1.0214,100826.27
-1.0405,-0.0845,-0.1406,-55.122,9.39,0.488,1.0534,100826.14
-1.0518,-0.0913,-0.2227,-58.11,16.22,-5.793,1.0789,100826.27
-1.0854,-0.0806,-0.2788,-59.695,19.085,-12.988,1.1236,100827.01
-1.0967,-0.0391,-0.3184,-66.159,28.049,-15.183,1.1426,100826.95
-1.0962,0.0044,-0.311,-78.171,40.0,-16.951,1.1395,100826.9
-1.2031,0.0098,0.1133,-84.756,29.817,-9.756,1.2085,100826.27
-1.3896,-0.0342,0.3887,-98.902,20.183,-1.829,1.4434,100826.62
-0.9341,-0.103,0.2036,-109.878,14.634,-17.988,0.9616,100825.92
-0.8037,-0.1162,0.1309,-99.024,-2.866,-16.341,0.8225,100825.14
-0.9341,-0.0078,0.0015,-92.561,-19.573,-17.744,0.9341,100825.05
-0.9814,0.0166,-0.1108,-92.317,-13.598,-21.829,0.9878,100825.6
-0.9121,0.0166,-0.085,-90.183,3.537,-17.439,0.9162,100825.64
-0.8555,0.0371,-0.1128,-89.817,1.22,-9.085,0.8637,100826.41
-0.8945,0.0151,-0.1528,-84.024,-5.0,-3.232,0.9076,100826.48
-0.9219,-0.0513,-0.1895,-74.268,0.305,-1.646,0.9425,100826.29
-0.915,-0.0654,-0.2378,-65.915,5.244,1.098,0.9477,100826.88
-0.9219,-0.0088,-0.2329,-58.902,4.512,2.744,0.9509,100827.07
-0.9976,-0.0063,-0.1572,-52.683,4.817,4.878,1.0099,100826.13
-1.1108,0.0068,-0.1768,-42.439,3.415,4.451,1.1248,100826.66
-1.23,0.1079,-0.4746,-22.866,5.122,1.22,1.3228,100827.53
-1.1777,0.0864,-0.4482,3.415,21.28,0.976,1.2631,100827.2
-1.0205,-0.1147,-0.1123,10.305,29.268,9.817,1.0331,100827.19
-1.1294,-0.2163,0.2178,1.585,13.72,27.012,1.1704,100827.05
-1.1362,-0.1133,0.4028,-11.098,1.707,19.634,1.2108,100826.48
-1.0596,-0.0347,0.0396,-29.085,0.61,-4.939,1.0609,100826.8
-1.0811,-0.0645,-0.1138,-29.329,-17.195,-16.098,1.0889,100826.89
-1.0518,-0.085,-0.1094,-35.366,-15.915,-9.573,1.0608,100825.76
-0.8408,-0.0415,-0.0762,-55.244,10.915,-7.683,0.8453,100825.87
-0.7666,0.0156,-0.0259,-71.707,10.915,-5.915,0.7672,100826.07
-0.856,0.0552,-0.021,-83.659,-2.683,-2.988,0.858,100825.36
-0.9199,0.04,-0.0825,-93.476,-4.39,-3.354,0.9245,100825.07
-0.9399,0.0625,-0.1499,-97.134,-1.098,-3.232,0.9539,100825.0
-0.9624,0.0942,-0.1929,-92.195,4.268,-2.073,0.9861,100825.3
-0.978,0.082,-0.2056,-78.476,11.524,-0.915,1.0028,100825.68
-0.9937,0.0195,-0.2061,-62.927,9.268,-1.768,1.015,100826.05
-1.0718,-0.0415,-0.251,-53.171,3.171,-4.878,1.1016,100826.23
-1.1152,-0.0566,-0.3599,-51.524,4.268,-10.61,1.1732,100825.6
-1.1216,-0.04,-0.3975,-46.646,5.305,-16.341,1.1906,100826.22
-1.082,-0.0215,-0.4175,-36.646,11.585,-20.061,1.16,100826.97
-1.1763,0.0557,-0.2119,-33.354,15.366,-21.159,1.1965,100826.18
-1.3301,0.0806,0.2759,-38.537,4.451,-14.268,1.3608,100826.2
-1.019,0.042,0.2554,-38.232,17.073,-18.841,1.0514,100825.62
-0.8491,-0.0034,0.1499,-22.561,20.244,-15.122,0.8623,100826.16
-0.9409,0.0249,-0.0127,-24.878,0.427,-11.463,0.9413,100826.1
-0.9268,0.0049,-0.0098,-38.902,-29.817,-11.341,0.9268,100825.53
-0.916,-0.0132,-0.0488,-53.659,-31.22,-2.134,0.9174,100825.75
-0.8896,0.0303,-0.1265,-54.939,-20.793,6.22,0.8991,100826.14
-0.8525,0.0747,-0.2183,-40.366,-12.073,6.829,0.8832,100826.34
-0.8496,0.061,-0.2329,-13.902,0.305,2.195,0.8831,100826.22
-0.812,0.002,-0.1562,7.622,4.024,1.402,0.8269,100825.78
-0.8623,-0.02,-0.189,20.366,-2.134,10.793,0.883,100826.3
-1.0103,-0.0518,-0.2417,30.0,-6.646,12.5,1.0401,100825.61
-1.0415,-0.0449,-0.2075,30.061,-6.89,-1.585,1.0629,100826.19
-1.1538,-0.0381,-0.2935,22.012,-2.683,-1.829,1.1912,100825.48
-1.2944,-0.0391,-0.5166,18.354,3.293,4.512,1.3943,100825.48
-1.2085,-0.0635,-0.4082,18.476,25.488,7.5,1.2772,100826.57
-1.2876,-0.1235,0.0869,7.561,35.305,17.622,1.2964,100826.53
-1.3965,0.0132,0.7417,2.622,24.817,15.854,1.5813,100826.62
-1.019,0.2183,0.3232,-30.305,9.512,-14.939,1.0911,100825.45
-0.7651,0.126,-0.3657,-34.573,3.598,-25.305,0.8574,100825.44
-0.9287,0.0493,0.0039,6.768,-16.585,-3.049,0.93,100825.67
-0.9683,0.0386,0.1426,11.585,-1.768,7.134,0.9795,100826.34
-0.9482,0.0547,-0.1997,-1.951,-7.256,4.207,0.9706,100825.73
-0.835,0.0425,-0.1528,3.11,-3.78,-2.561,0.8499,100825.02
-0.7632,0.0264,-0.1226,-5.488,-3.232,-6.341,0.7734,100825.11
-0.7671,0.0615,-0.1582,-17.744,-6.707,-7.439,0.7856,100825.4
-0.8667,0.0864,-0.1846,-26.524,-5.427,-4.451,0.8903,100825.62
-0.9756,0.0771,-0.2383,-31.524,1.341,0.488,1.0072,100825.89
-0.9897,0.0391,-0.2373,-30.305,11.341,-0.793,1.0185,100826.11
-1.0098,0.0044,-0.2178,-30.915,9.024,-1.22,1.033,100826.15
-1.1543,0.0425,-0.3525,-32.073,3.293,1.89,1.2077,100826.55
-1.2764,0.1616,-0.4824,-21.098,17.439,-1.768,1.374,100826.72
-1.2734,0.2178,-0.396,-6.707,30.976,-5.915,1.3513,100826.99
-1.2026,0.1279,0.1123,1.159,25.305,-8.537,1.2146,100826.57
-1.0908,0.0322,0.5171,-0.61,25.244,-5.427,1.2076,100826.61
-0.9893,-0.0762,0.1621,-17.805,14.878,2.561,1.0053,100826.16
-0.9487,-0.085,-0.1128,-7.317,-19.817,1.829,0.9592,100825.95
-1.0088,-0.0386,-0.0044,3.415,-28.11,3.476,1.0095,100826.27
-0.8042,-0.0034,-0.1157,4.634,-8.841,-3.659,0.8125,100826.17
-0.8491,-0.0254,-0.147,8.049,-7.561,-2.805,0.8621,100825.84
-0.8774,-0.0439,-0.2173,8.963,-2.744,-0.732,0.905,100825.85
-0.9082,-0.0352,-0.2598,8.11,-0.488,4.512,0.9453,100825.95
-0.9565,-0.0205,-0.2651,5.305,5.488,6.402,0.9928,100826.64
-1.0112,-0.0581,-0.1646,0.854,4.146,5.122,1.0262,100826.56
-1.1064,-0.0708,-0.2495,-5.854,-0.976,0.488,1.1364,100827.01
-1.2124,-0.0112,-0.5532,1.646,-1.159,-5.488,1.3327,100827.55
-1.1382,-0.0098,-0.4648,23.11,11.707,-6.646,1.2295,100828.09
-1.1846,-0.0732,0.0547,25.61,20.244,3.841,1.1881,100828.03
-1.3091,-0.0752,0.2612,10.244,13.476,7.073,1.337,100827.25
-1.0483,0.1084,0.1255,-5.305,13.415,-14.695,1.0614,100826.54
-1.0142,0.1187,0.0806,-10.854,-2.439,-20.671,1.0243,100826.13
-0.9658,0.0342,0.0259,-7.317,-29.024,-2.866,0.9668,100825.8
-0.9854,0.0073,-0.1724,1.707,-29.878,11.341,1.0003,100826.18
-0.8052,-0.02,-0.188,16.951,-23.78,-5.0,0.8271,100826.43
-0.7354,-0.0293,-0.1221,16.585,-11.89,-7.622,0.746,100826.87
-0.7524,0.0151,-0.0942,3.902,-4.085,1.22,0.7585,100826.7
-0.8442,0.0669,-0.1382,-9.329,-7.622,6.707,0.8581,100826.81
-1.0298,0.0713,-0.2188,-16.28,-13.841,6.098,1.0552,100827.14
-1.1245,0.0449,-0.291,-17.256,-5.061,0.122,1.1624,100827.03
-1.0693,0.0435,-0.2358,-13.537,12.378,-6.22,1.0959,100826.81
-1.0532,0.0938,-0.2085,-14.146,19.451,-9.451,1.0777,100826.66
-1.0322,0.085,-0.2588,-19.512,13.841,-8.78,1.0676,100827.04
-1.085,0.0718,-0.4243,-24.756,7.866,1.585,1.1672,100827.55
-1.1914,0.1021,-0.417,-21.707,12.683,8.171,1.2664,100827.58
-1.2646,0.0635,0.042,-14.451,13.537,11.037,1.2669,100826.99
-1.2085,-0.0264,0.2461,-20.549,8.902,10.732,1.2336,100827.42
-0.9639,-0.1226,0.1313,-23.354,14.817,9.085,0.9805,100826.75
-0.9624,-0.1328,0.0996,-16.341,4.695,14.817,0.9766,100826.15
-0.9351,-0.0801,0.0205,-14.329,-11.89,10.427,0.9387,100825.45
-0.896,-0.0342,-0.0552,-13.293,-26.707,-1.22,0.8983,100825.29
-0.8276,-0.0073,-0.1411,-12.988,-30.976,-8.354,0.8396,100825.3
-0.8125,0.0269,-0.1587,-10.915,-19.024,-1.037,0.8283,100825.52
-0.8662,0.0396,-0.1348,-8.11,-2.073,2.622,0.8775,100825.35
-0.9375,0.0107,-0.124,-4.024,2.866,-0.244,0.9457,100825.34
-0.8936,-0.0371,-0.1855,0.61,-0.305,-1.159,0.9134,100825.93
-0.9165,-0.0356,-0.3105,1.951,-0.854,1.951,0.9683,100826.73
-1.0356,-0.0171,-0.248,0.244,6.037,2.378,1.0651,100826.71
-1.1021,-0.0493,-0.1704,-7.195,7.012,0.244,1.1162,100825.98
-1.1821,0.0059,-0.3135,-10.427,3.902,3.11,1.223,100825.65
-1.1753,0.1606,-0.5391,1.28,2.988,6.402,1.303,100825.62
-1.1768,0.0874,-0.2637,20.732,19.817,10.305,1.2091,100825.36
-1.2993,-0.063,0.0898,16.28,35.183,20.366,1.3039,100825.6
-1.1938,-0.0503,0.332,7.927,21.098,20.61,1.2402,100825.68
-0.9067,0.0884,0.2183,-5.122,1.098,7.622,0.9368,100825.73
-0.8618,0.1104,0.1323,-7.134,-21.463,2.988,0.8789,100825.5
-0.9175,0.0605,-0.0698,-4.634,-47.378,0.793,0.9221,100826.09
-0.8823,0.0112,-0.2021,6.037,-42.561,-5.427,0.9053,100826.01
-0.8442,-0.0264,-0.1592,12.256,-21.646,-7.5,0.8595,100825.84
-0.873,-0.001,-0.1187,3.171,-4.878,-4.939,0.8811,100825.32
-0.9111,0.0576,-0.144,-13.598,5.244,-4.634,0.9242,100824.91
-0.8965,0.1108,-0.2158,-23.537,8.841,-9.512,0.9287,100825.74
-0.834,0.1553,-0.2749,-24.451,9.695,-13.659,0.8917,100825.12
-0.8867,0.1074,-0.2715,-18.78,12.561,-11.463,0.9335,100824.91
-1.0474,0.0479,-0.1895,-12.5,11.463,-7.805,1.0654,100825.24
-1.1304,0.0479,-0.1992,-12.5,7.927,-5.061,1.1488,100825.48
-1.123,0.0386,-0.3511,-11.829,1.524,-4.878,1.1773,100826.18
-1.1641,0.0747,-0.5396,-3.659,-0.488,-9.39,1.2852,100826.31
-1.3477,0.1348,-0.2236,1.22,14.268,-13.963,1.3727,100825.95
-1.3291,0.0933,0.1592,-10.061,19.085,-14.695,1.3418,100825.91
-1.0127,-0.0298,0.1548,-16.646,31.463,-3.902,1.0249,100826.97
-0.8359,-0.0991,0.1748,-7.927,26.159,11.22,0.8598,100826.68
-0.9307,-0.085,0.1807,-2.683,-0.732,8.354,0.9518,100825.95
-0.9785,-0.0742,0.04,-10.366,-25.793,-2.866,0.9821,100826.03
-1.002,-0.0371,-0.1826,-16.463,-45.976,-0.671,1.0191,100824.72
-0.8994,0.0044,-0.3047,-8.171,-40.61,3.293,0.9496,100824.14
-0.8018,-0.0205,-0.2065,7.134,-6.585,-2.195,0.8282,100823.95
-0.7544,-0.0601,-0.1445,9.085,9.573,-4.39,0.7705,100824.66
-0.8452,-0.0767,-0.1685,3.049,5.183,6.463,0.8652,100824.59
-0.9287,-0.0825,-0.2861,-0.183,3.537,12.805,0.9753,100825.88
-1.0122,-0.0967,-0.3179,4.085,11.646,12.317,1.0653,100825.35
-1.0947,-0.106,-0.1411,9.146,20.549,6.463,1.1089,100824.82
-1.1616,-0.0747,-0.3242,2.683,8.293,3.841,1.2083,100824.58
-1.2261,-0.0859,-0.6299,-9.207,-3.415,5.976,1.3811,100824.79
-1.2783,-0.1938,-0.1685,-15.976,26.829,16.037,1.3039,100825.53
-1.3975,-0.1509,0.4453,-17.622,33.963,19.695,1.4744,100826.31
-1.0293,0.0107,0.272,-37.073,7.073,-3.415,1.0647,100826.07
-0.9536,-0.0347,0.0869,-56.341,18.476,-13.415,0.9582,100824.92
-0.9707,-0.124,0.1465,-68.78,-1.524,-17.134,0.9895,100825.3
-0.915,-0.1646,-0.0684,-80.244,-24.268,-15.732,0.9322,100824.94
-0.8799,-0.1353,-0.208,-90.183,-18.232,-15.732,0.9142,100825.03
-0.8809,-0.084,-0.0425,-102.378,-3.537,-19.451,0.8859,100825.22
-0.8389,0.0107,-0.0137,-118.902,3.72,-20.61,0.839,100825.1
-0.8667,0.0679,-0.0391,-126.037,-3.293,-17.073,0.8702,100824.9
-0.9346,0.085,-0.106,-128.11,-18.963,-14.39,0.9444,100824.99
-0.9209,0.0815,-0.3369,-124.939,-16.829,-9.024,0.984,100825.05
-1.0146,0.0063,-0.2959,-103.963,6.89,-5.427,1.0569,100824.62
-1.0366,-0.0273,-0.1523,-84.024,15.549,-13.78,1.0481,100825.29
-1.1855,-0.0171,-0.2988,-76.28,8.72,-14.695,1.2227,100826.15
-1.2798,-0.0278,-0.5205,-67.805,2.5,-18.415,1.3819,100825.69
-1.2393,-0.0859,-0.3672,-62.5,16.768,-18.293,1.2954,100826.22
-1.2114,-0.2046,0.1948,-66.646,28.72,-19.695,1.2439,100825.52
-1.1519,-0.1733,0.356,-82.805,35.854,-24.756,1.218,100825.47
-1.1108,-0.2407,0.2827,-90.122,29.268,-20.976,1.1713,100824.7
-0.9468,-0.2651,0.1938,-93.11,-0.366,-16.646,1.0021,100823.89
-0.8613,-0.2305,0.0908,-104.268,-41.585,-14.39,0.8962,100823.9
-0.8462,-0.1284,-0.123,-121.28,-63.72,-17.866,0.8647,100824.38
-0.8286,-0.0757,-0.1357,-90.183,-25.61,-13.902,0.8431,100824.73
-0.8042,-0.0962,-0.0669,-78.598,-0.671,-9.146,0.8127,100824.26
-0.8613,-0.1313,-0.1392,-69.146,-12.744,-4.207,0.8823,100824.16
-0.9238,-0.1479,-0.188,-66.585,-13.11,2.012,0.9543,100825.44
-1.0151,-0.1206,-0.2646,-69.512,-2.866,10.732,1.056,100826.03
-1.1001,-0.0908,-0.2441,-64.146,3.476,17.622,1.1305,100825.61
-1.2324,-0.0591,-0.3135,-50.549,11.768,26.829,1.273,100826.77
-1.2622,-0.0933,-0.4326,-21.098,10.976,25.976,1.3375,100825.89
-1.2178,-0.2124,-0.3647,10.0,15.549,19.634,1.2888,100825.86
-1.2378,-0.2651,0.1499,20.61,25.0,20.0,1.2747,100825.84
-1.2114,-0.1826,0.4629,-9.817,22.195,11.159,1.3096,100826.17
-0.9966,-0.1143,0.3374,-51.22,31.159,-5.122,1.0583,100826.14
-0.9282,-0.1143,0.0693,-70.183,20.183,-11.159,0.9378,100825.91
-0.9766,-0.0938,-0.0781,-65.976,-17.988,-12.195,0.9842,100825.59
-0.8926,-0.0498,-0.0991,-53.841,-24.573,-7.5,0.8994,100825.34
-0.8447,-0.0596,-0.1182,-54.817,1.768,-7.927,0.855,100825.02
-0.894,-0.0742,-0.0371,-66.463,10.671,-8.171,0.8979,100824.55
-0.9507,-0.0317,0.02,-86.037,9.634,-3.841,0.9514,100824.55
-0.9243,0.0513,-0.0342,-106.524,6.89,-3.659,0.9264,100823.72
-0.8999,0.1104,-0.1836,-112.927,-2.622,-4.085,0.925,100824.17
-0.9761,0.043,-0.4038,-96.402,0.305,-5.854,1.0572,100824.5
-0.9985,-0.0869,-0.2705,-65.488,21.22,-7.439,1.0382,100824.16
-0.9966,-0.0977,-0.1777,-56.646,22.5,-6.707,1.017,100823.94
-1.0684,-0.0776,-0.3887,-59.573,8.171,-9.573,1.1395,100823.86
-1.1289,-0.1084,-0.5713,-52.866,6.585,-12.988,1.2699,100824.29
-1.2314,-0.1138,-0.0767,-37.012,10.0,-14.512,1.2391,100824.27
-0.9771,-0.0493,0.1226,-48.293,-4.817,-11.646,0.9859,100824.16
-0.9443,-0.0742,0.1064,-38.415,-25.244,-17.073,0.9532,100824.02
-0.9561,-0.1055,0.0381,-48.963,-35.976,-16.89,0.9626,100823.95
-0.9189,-0.0439,-0.1533,-61.037,-40.732,-7.988,0.9327,100824.59
-0.8525,0.0088,-0.1748,-59.817,-37.866,3.415,0.8703,100825.59
-0.8218,0.002,-0.1357,-51.829,-12.012,5.366,0.8329,100825.2
-0.8032,-0.0205,-0.1367,-40.549,4.085,1.585,0.815,100824.8
-0.8745,-0.0728,-0.1538,-33.232,3.841,2.927,0.8909,100824.48
-0.957,-0.1079,-0.2319,-27.561,2.744,8.049,0.9906,100824.98
-1.0723,-0.1172,-0.2739,-20.305,8.415,9.939,1.1129,100825.36
-1.1489,-0.0845,-0.1826,-18.659,19.695,7.134,1.1664,100825.27
-1.1675,-0.0283,-0.2173,-14.756,17.439,7.439,1.1879,100825.71
-1.0259,0.0117,-0.3813,-6.402,3.293,7.256,1.0945,100825.8
-1.1255,-0.0356,-0.2505,4.268,9.756,22.622,1.1536,100826.12
-1.5869,-0.0903,0.2017,12.012,46.585,35.061,1.6022,100826.24
-1.1641,0.0117,0.2578,-1.89,30.183,2.744,1.1923,100825.84
-0.771,0.041,0.0107,-18.415,17.195,-12.073,0.7722,100825.89
-0.9004,0.0371,0.1323,-5.488,20.122,-4.695,0.9108,100825.94
-0.9707,0.0303,0.1538,2.927,-6.098,-0.976,0.9833,100824.73
-1.02,0.002,-0.1182,2.988,-35.854,-4.634,1.0268,100824.97
-0.8359,-0.0049,-0.2109,7.378,-49.329,-10.915,0.8622,100824.16
-0.8408,0.0088,-0.2632,3.902,-29.573,0.854,0.8811,100824.31
-0.9238,0.0459,-0.1738,-5.671,11.829,4.756,0.9412,100823.68
-0.873,0.0728,-0.1997,-24.146,14.512,-5.488,0.8985,100825.77
-0.9233,0.0068,-0.2637,-26.646,9.451,-1.646,0.9603,100825.48
-0.9688,-0.021,-0.2583,-23.476,13.72,-1.402,1.0028,100825.65
-1.0527,0.0049,-0.2222,-20.122,20.305,-5.488,1.0759,100826.41
-1.1528,-0.0054,-0.3291,-18.902,12.744,-10.244,1.1989,100825.83
-1.2109,0.0083,-0.6392,-14.268,0.915,-13.11,1.3693,100827.14
-1.3999,0.0898,-0.4985,-8.293,17.195,-12.195,1.4887,100826.38
-1.4512,0.043,0.0498,-14.024,41.037,-14.756,1.4527,100826.3
-0.9995,0.0103,0.2197,-17.805,46.463,-22.378,1.0234,100825.54
-0.6763,-0.0205,0.1221,-10.61,26.28,-18.049,0.6875,100825.2
-0.7451,-0.0083,0.064,-5.732,9.756,-17.317,0.7479,100824.56
-0.834,-0.0288,0.0513,-10.549,-9.878,-16.524,0.8361,100824.82
-0.8677,-0.0659,-0.0283,-22.317,-47.744,-5.427,0.8706,100824.77
-0.9468,-0.0186,-0.2495,-27.012,-60.305,4.329,0.9793,100824.36
-0.9438,0.0308,-0.3901,-12.378,-41.829,7.378,1.0218,100824.66
-0.876,-0.0068,-0.2817,5.671,-2.073,5.183,0.9202,100824.4
-0.8389,-0.0522,-0.1934,11.585,14.207,4.878,0.8624,100824.31
-0.9209,-0.0366,-0.2295,11.037,8.598,10.549,0.9498,100824.99
-0.9844,-0.0137,-0.311,14.573,-0.366,12.378,1.0324,100824.85
-1.0957,-0.0371,-0.3203,23.902,-1.89,11.402,1.1422,100825.52
-1.1753,-0.061,-0.3555,26.768,4.146,2.927,1.2294,100826.49
-1.1084,-0.0435,-0.5405,27.256,5.488,1.829,1.2339,100826.49
-1.1802,-0.0352,-0.4087,46.22,6.89,6.646,1.2494,100826.25
-1.4917,-0.0776,0.2017,58.354,27.317,12.744,1.5073,100826.09
-1.04,-0.0005,0.1914,39.085,43.537,-5.793,1.0575,100825.09
-0.7788,0.0322,0.0566,26.28,21.585,-7.256,0.7815,100823.97
-0.9155,-0.0176,0.0825,20.915,0.854,7.134,0.9194,100824.38
-0.9585,-0.0352,-0.0103,18.232,-5.0,21.768,0.9592,100824.56
-1.0122,-0.0347,-0.1733,13.293,-35.549,22.866,1.0275,100823.72
-0.8911,-0.0596,-0.3247,-0.183,-58.232,6.707,0.9503,100823.91
-0.8335,-0.0645,-0.3257,-10.915,-33.598,2.805,0.8972,100824.45
-0.7769,-0.0015,-0.187,-22.866,4.146,0.671,0.799,100824.82
-0.7886,0.0527,-0.1992,-32.866,7.805,-0.305,0.8151,100823.38
-0.9678,0.0522,-0.2891,-32.5,-5.305,1.098,1.0114,100824.28
-1.064,0.0327,-0.3853,-28.537,-2.561,-1.098,1.132,100824.97
-1.0957,0.0264,-0.3315,-27.012,20.0,-0.488,1.1451,100824.76
-1.1357,0.0635,-0.3247,-27.378,32.378,-0.305,1.183,100824.34
-1.1562,0.0601,-0.5068,-23.537,18.841,-2.439,1.2639,100824.99
-1.2485,0.0073,-0.3618,-10.427,11.829,-7.927,1.2999,100825.62
-1.3408,-0.0088,0.1255,-11.585,36.585,-12.622,1.3467,100825.26
-1.1401,-0.0264,0.1494,-31.951,49.024,-13.171,1.1502,100825.57
-0.8364,-0.0635,0.042,-31.463,25.122,-9.878,0.8399,100825.31
-0.9224,-0.0132,0.0356,-18.902,11.89,1.159,0.9231,100825.23
-0.9434,0.0327,-0.0254,-16.524,-14.634,-3.232,0.9443,100824.8
-0.8149,0.042,-0.1504,-20.122,-53.78,-11.098,0.8298,100824.62
-0.7441,0.0615,-0.2358,-16.22,-74.39,-7.439,0.783,100824.35
-0.8442,0.0273,-0.2983,-0.366,-52.195,-1.463,0.8958,100824.76
-0.9048,-0.0659,-0.2266,25.061,4.634,1.341,0.935,100824.75
-0.9395,-0.0195,-0.2832,17.927,-4.085,3.11,0.9814,100824.7
-0.9805,-0.0493,-0.2505,8.354,-2.317,5.976,1.0132,100824.91
-1.0708,-0.0293,-0.332,3.659,4.695,13.354,1.1215,100824.45
-1.2104,0.063,-0.5083,4.085,-3.354,16.646,1.3144,100825.2
-1.314,0.0552,-0.4478,16.159,13.902,21.524,1.3893,100825.27
-1.3984,-0.043,0.0352,31.28,42.622,28.354,1.3995,100825.21
-1.2881,-0.0581,0.3428,25.854,39.146,17.683,1.3342,100825.41
-0.8994,-0.0381,0.1548,6.768,16.585,-8.659,0.9134,100825.1
-0.8652,-0.0342,0.0527,1.402,-19.939,-13.537,0.8675,100824.34
-0.9126,-0.0068,-0.0513,5.854,-44.39,-2.317,0.9141,100824.65
-0.936,0.0605,-0.1992,18.537,-43.415,2.134,0.9589,100824.65
-0.8774,0.0542,-0.21,30.305,-21.28,-8.354,0.9038,100824.76
-0.8232,-0.0347,-0.1362,25.366,-3.537,-11.341,0.8352,100825.2
-0.8032,-0.0459,-0.1255,3.293,2.988,-5.427,0.8143,100825.65
-0.7808,0.0024,-0.1431,-17.378,1.768,-1.829,0.7938,100824.02
-0.8252,0.0156,-0.231,-29.573,0.244,-0.61,0.857,100824.53
-0.9292,0.0093,-0.2959,-32.561,5.732,4.695,0.9752,100824.04
-1.1289,0.0127,-0.2339,-36.28,10.976,12.195,1.1529,100825.01
-1.2148,0.0835,-0.2974,-48.476,3.78,5.61,1.2535,100825.36
-1.2075,0.0884,-0.522,-50.732,2.927,-3.171,1.3185,100825.85
-1.1611,0.0356,-0.5347,-36.28,18.598,-7.195,1.2788,100826.76
-1.2114,0.0396,-0.165,-22.134,19.146,-5.305,1.2233,100826.18
-1.2349,0.0659,0.2524,-22.378,9.695,-2.5,1.2621,100825.78
-1.0293,-0.0024,0.252,-25.061,7.866,-3.902,1.0597,100824.95
-0.9453,-0.0459,0.1929,-14.329,0.305,-1.22,0.9659,100824.71
-0.9614,-0.0254,0.0972,-10.122,-15.976,4.329,0.9667,100825.04
-0.915,0.0332,-0.0933,-15.854,-35.488,-1.768,0.9204,100824.99
-0.8862,0.0332,-0.2427,-17.134,-27.683,-5.366,0.9195,100825.21
-0.8525,0.0234,-0.168,-11.159,-2.622,2.805,0.8692,100824.65
-0.8398,0.0254,-0.1274,-6.159,6.585,8.659,0.8498,100824.6
-0.8672,-0.0142,-0.167,-0.732,5.549,8.049,0.8832,100824.56
-0.8892,-0.0547,-0.2114,5.488,5.793,8.537,0.9156,100824.52
-0.9048,-0.0527,-0.2764,8.537,10.244,9.451,0.9475,100824.52
-0.9761,-0.041,-0.2471,8.476,11.402,8.476,1.0077,100823.77
-1.0869,-0.0073,-0.2437,3.902,11.037,6.22,1.1139,100824.66
-1.1689,0.0273,-0.376,1.28,3.659,6.524,1.2282,100824.6
-1.1812,0.062,-0.563,3.537,-6.28,8.354,1.3099,100824.55
-1.25,-0.0029,-0.2734,12.866,9.878,12.012,1.2796,100825.02
-1.2974,-0.0566,0.2217,11.402,37.561,22.744,1.3174,100823.88
-1.02,0.0215,0.2251,-14.146,42.683,19.878,1.0448,100823.39
-0.8589,0.1074,0.1714,-30.061,8.78,3.415,0.8824,100824.12
-1.0493,0.0342,0.1362,-38.78,-21.646,-1.098,1.0587,100824.93
-1.1045,-0.022,-0.1362,-38.354,-29.817,1.28,1.1131,100824.66
-0.9624,-0.0381,-0.2324,-28.232,-22.317,-2.439,0.9908,100824.85
-0.7974,-0.0342,-0.1577,-28.476,-0.427,-13.171,0.8135,100824.24
-0.7739,0.0186,-0.0952,-44.634,10.854,-15.427,0.78,100823.04
-0.8438,0.0938,-0.0796,-66.402,8.171,-14.146,0.8527,100823.09
-0.9663,0.1343,-0.1631,-78.659,1.524,-12.561,0.9891,100823.62
-1.0459,0.1128,-0.2744,-78.72,4.512,-7.622,1.0872,100824.02
-1.0283,0.0435,-0.2397,-69.268,14.329,-6.22,1.0568,100824.34
-0.9585,-0.0073,-0.187,-61.951,20.732,-11.646,0.9766,100824.09
-0.9526,-0.0078,-0.208,-58.841,18.841,-15.671,0.9751,100824.14
-1.0273,-0.019,-0.3315,-55.793,10.305,-17.988,1.0797,100823.94
-1.0996,-0.0425,-0.4668,-55.488,7.256,-20.488,1.1953,100824.27
-1.1567,-0.0103,-0.4316,-64.756,19.268,-20.793,1.2347,100824.17
-1.2466,0.002,-0.1138,-75.915,24.512,-19.878,1.2518,100824.59
-1.2773,-0.019,0.2026,-79.39,16.951,-24.695,1.2935,100824.89
-1.0747,-0.061,0.2456,-80.305,27.195,-32.744,1.1041,100825.59
-0.918,-0.125,0.1875,-89.146,12.866,-30.915,0.9452,100825.41
-0.8911,-0.1167,0.1025,-101.22,-27.256,-27.134,0.9046,100825.01
-0.9077,-0.0469,-0.0239,-108.171,-54.451,-27.805,0.9092,100824.34
-0.9468,0.0063,-0.2549,-114.268,-48.232,-27.012,0.9805,100823.59
-0.9004,-0.0146,-0.1685,-110.0,-19.817,-18.049,0.9161,100823.41
-0.8369,-0.0356,-0.0933,-104.329,-3.841,-9.573,0.8428,100823.91
-0.8911,-0.0557,-0.1143,-94.695,-6.159,-2.317,0.9001,100824.25
-0.9697,-0.0649,-0.1899,-81.22,-8.841,2.866,0.9903,100824.09
-0.9775,-0.0728,-0.2856,-69.207,-3.72,2.439,1.021,100824.25
-0.9722,-0.0732,-0.2295,-61.098,8.78,3.902,1.0016,100824.39
-1.0171,-0.0474,-0.1699,-61.037,11.524,11.22,1.0323,100824.24
-1.1182,-0.0469,-0.249,-57.378,4.024,18.232,1.1465,100824.51
-1.1807,-0.0972,-0.4502,-40.976,0.061,19.817,1.2673,100824.87
-1.1489,-0.165,-0.3569,-21.524,7.5,17.988,1.2144,100825.22
-1.2358,-0.2085,-0.0483,-20.488,17.012,16.402,1.2542,100825.48
-1.1792,-0.1167,0.3013,-33.902,17.012,-0.366,1.2227,100824.58
-1.0347,-0.0273,0.3643,-54.268,24.756,-12.073,1.0973,100824.52
-0.8945,0.0464,0.2578,-72.012,15.915,-19.634,0.9321,100824.72
-1.084,0.1211,0.0415,-86.524,7.988,-18.293,1.0915,100824.23
-1.0527,0.0991,-0.0752,-87.622,-18.963,-20.183,1.0601,100824.72
-0.8936,0.0151,-0.249,-96.951,-15.854,-18.171,0.9277,100824.36
-0.8101,-0.043,-0.1436,-98.963,6.22,-14.573,0.8238,100824.7
-0.7837,-0.0215,-0.043,-99.268,18.902,-14.024,0.7852,100824.72
-0.8647,0.0435,-0.0503,-101.89,11.463,-16.28,0.8673,100824.73
-0.9819,0.0732,-0.1177,-107.195,6.951,-12.988,0.9917,100824.99
-0.9429,0.0981,-0.2998,-103.841,6.829,-8.72,0.9942,100825.05
-0.9697,0.0439,-0.3799,-85.671,12.256,-6.22,1.0424,100825.09
-1.043,0.0205,-0.2817,-65.183,24.085,-12.378,1.0805,100825.88
-1.0469,0.0532,-0.2549,-59.329,26.829,-21.707,1.0788,100826.59
-1.0825,0.0679,-0.3613,-61.89,14.695,-22.866,1.1432,100826.73
-1.1318,0.0859,-0.5425,-58.171,8.049,-15.61,1.2581,100826.49
-1.2236,0.0449,-0.2744,-47.744,17.744,-4.573,1.2548,100825.83
-1.3667,-0.04,0.0659,-51.768,45.305,4.756,1.3689,100825.55
-1.1787,-0.147,0.0342,-62.073,57.866,-5.122,1.1883,100825.38
-0.8325,-0.1689,0.0518,-54.085,26.037,-17.805,0.8511,100825.12
-0.834,-0.1255,0.106,-48.537,-2.927,-15.549,0.85,100825.52
-0.8794,-0.083,0.0605,-51.646,-21.159,-16.768,0.8854,100824.38
-0.9263,-0.0244,-0.1987,-60.244,-56.89,-18.659,0.9477,100824.23
-0.8394,0.0586,-0.3442,-45.0,-30.0,-5.793,0.9091,100824.39
-0.8433,-0.0215,-0.2471,-33.354,6.646,0.122,0.879,100824.85
-0.8687,-0.0923,-0.2285,-27.378,11.646,7.195,0.9029,100826.16
-0.9126,-0.1064,-0.2632,-23.78,4.024,11.951,0.9557,100826.17
-0.978,-0.0112,-0.3232,-19.146,-1.585,6.463,1.0301,100825.81
-1.1367,0.0625,-0.3071,-11.646,3.415,7.317,1.1791,100825.7
-1.1562,0.0439,-0.3662,-0.305,17.073,14.451,1.2137,100824.99
-1.1528,0.0435,-0.5146,10.244,13.72,20.732,1.2632,100825.44
-1.1528,-0.0342,-0.3115,16.829,14.207,28.841,1.1947,100824.93
-1.2935,-0.0601,0.1172,11.402,41.646,42.073,1.3001,100824.91
-1.0962,0.0796,0.1943,-6.28,48.902,28.963,1.1161,100824.65
-1.0205,0.125,0.0859,-21.707,27.134,10.732,1.0317,100824.59
-1.0854,0.1089,0.0376,-17.012,-11.585,9.878,1.0915,100824.66
-1.002,0.0488,-0.1572,-2.378,-56.646,9.878,1.0154,100823.87
-0.7603,0.0132,-0.3354,5.976,-50.244,-3.598,0.8311,100823.74
-0.645,-0.0015,-0.2153,12.256,-6.524,-10.976,0.68,100824.02
-0.7339,0.0669,-0.1123,3.354,9.39,-12.439,0.7454,100824.23
-0.8394,0.1553,-0.1665,-14.634,3.598,-16.159,0.8697,100824.39
-1.0024,0.1948,-0.2681,-24.756,-1.89,-14.878,1.0558,100825.22
-1.0659,0.1431,-0.3755,-22.256,-1.28,-13.537,1.1391,100825.5
-1.0015,0.0806,-0.2656,-12.561,8.659,-12.195,1.0392,100825.93
-1.0205,0.0815,-0.1841,-12.561,12.256,-6.829,1.0402,100825.41
-1.0562,0.0825,-0.3037,-15.366,4.024,-7.927,1.102,100825.52
-1.0547,0.0659,-0.5664,-14.878,-2.256,-11.098,1.199,100825.59
-1.0913,0.0962,-0.5371,-10.732,15.122,-15.244,1.2201,100825.27
-1.1465,0.123,-0.1328,-11.402,27.439,-20.549,1.1607,100825.4
-1.249,0.1035,0.1562,-17.744,26.89,-16.524,1.263,100825.16
-1.0815,0.0444,0.1416,-22.805,35.122,-3.232,1.0917,100824.59
-1.0728,0.0273,0.1299,-25.732,25.793,6.829,1.0809,100824.52
-1.0273,0.041,0.0386,-33.232,-25.427,-4.512,1.0289,100824.6
-0.894,0.0469,-0.1592,-38.415,-65.427,-13.049,0.9093,100824.54
-0.75,0.0781,-0.3486,-33.11,-68.415,-8.476,0.8308,100824.38
-0.7432,0.0806,-0.3149,-18.049,-26.402,-2.622,0.8112,100825.1
-0.8188,0.043,-0.1646,-11.159,13.171,-0.122,0.8363,100824.69
-0.8701,0.0273,-0.189,-10.976,11.951,7.073,0.8908,100825.22
-0.9321,0.0049,-0.2412,-6.707,2.073,14.207,0.9628,100825.48
-0.9429,0.0142,-0.3076,-2.744,0.732,8.902,0.9919,100825.2
-0.9341,0.0347,-0.2881,-3.171,5.366,0.854,0.9781,100825.59
-1.0381,0.0532,-0.2471,-3.415,3.171,4.939,1.0684,100825.41
-1.2202,0.0869,-0.3745,1.037,-4.268,8.598,1.2794,100825.73
-1.271,0.1445,-0.625,13.72,2.134,8.72,1.4237,100825.75
-1.2373,0.0996,-0.2998,30.854,27.805,11.951,1.277,100825.64
-1.3022,0.0518,0.2251,32.134,34.634,23.232,1.3226,100826.18
-1.0195,0.1597,0.3115,16.646,24.634,21.524,1.078,100825.72
-0.9243,0.1787,0.1235,-0.244,4.756,12.805,0.9495,100825.38
-1.0171,0.1206,0.0566,4.451,-21.037,-1.829,1.0258,100825.47
-0.9585,0.0669,-0.1367,23.354,-53.354,-8.293,0.9705,100825.91
-0.8203,0.0386,-0.3096,37.012,-47.134,-14.573,0.8776,100825.75
-0.7222,0.0381,-0.2202,35.183,-15.0,-16.707,0.756,100825.64
-0.7632,0.1021,-0.1489,17.073,-1.89,-7.134,0.7842,100825.29
-0.8433,0.187,-0.1479,-1.28,3.963,-2.378,0.8763,100824.3
-0.9224,0.1938,-0.2207,-11.89,7.561,-4.878,0.968,100824.19
-0.9888,0.1138,-0.2969,-12.256,13.171,-7.195,1.0386,100823.1
-0.9961,0.0479,-0.2695,-7.927,17.744,-10.305,1.033,100823.65
-1.0044,0.0596,-0.2144,-9.634,13.963,-12.134,1.0287,100824.52
-1.0786,0.0996,-0.3452,-18.78,6.28,-11.037,1.1369,100825.2
-1.1465,0.0991,-0.5479,-21.402,9.939,-8.72,1.2745,100824.98
-1.1875,0.1123,-0.4556,-16.585,24.756,-9.756,1.2768,100824.29
-1.2881,0.1343,-0.0239,-15.0,20.183,-17.256,1.2953,100824.98
-1.1567,0.1045,0.1929,-24.512,10.183,-22.317,1.1774,100824.42
-0.8672,0.0088,0.1255,-21.463,11.768,-10.244,0.8763,100824.49
-0.9614,-0.0117,0.0767,-8.537,-6.768,8.11,0.9645,100824.8
-0.9727,0.0479,-0.1021,-3.293,-27.683,8.963,0.9792,100824.27
-0.897,0.0889,-0.1846,0.671,-26.585,0.183,0.9201,100824.86
-0.814,0.0801,-0.2046,3.171,-17.134,-0.976,0.8431,100823.7
-0.8032,0.0439,-0.1943,8.415,-11.28,6.951,0.8276,100823.56
-0.8389,0.0288,-0.2046,16.89,-6.951,12.744,0.8639,100823.22
-0.8809,0.0107,-0.2441,24.146,-5.732,14.085,0.9141,100823.33
-0.9302,0.0083,-0.2632,26.646,-5.305,11.28,0.9667,100823.91
-0.9438,0.0278,-0.2676,21.098,-2.622,7.927,0.9814,100825.19
-0.9854,0.0127,-0.2227,11.89,-3.415,8.232,1.0103,100824.2
-1.0674,-0.0181,-0.25,4.268,-6.646,5.671,1.0964,100824.05
-1.1182,-0.0088,-0.4028,-1.341,-12.561,0.793,1.1885,100825.02
-1.0864,0.0845,-0.5132,-1.768,-11.402,-0.183,1.2045,100825.52
-1.1694,0.1025,-0.3896,6.829,3.659,4.451,1.2369,100826.02
-1.4507,0.0205,0.105,16.22,14.268,14.695,1.4546,100825.42
-1.3916,0.0171,0.2515,3.11,10.549,14.634,1.4142,100824.48
-0.8887,0.0781,0.1382,-14.695,1.159,-4.573,0.9027,100824.73
-0.8765,0.0454,0.0566,-18.476,-9.939,-13.902,0.8795,100824.2
-0.8989,0.0479,-0.1431,15.061,-13.354,-5.427,0.9115,100824.06
-0.8101,0.0576,-0.1606,18.11,-14.207,-9.634,0.8278,100823.97
-0.7749,0.0615,-0.1611,12.927,-10.366,-14.085,0.7939,100824.26
-0.812,0.0781,-0.1484,1.829,-0.915,-10.183,0.8292,100824.68
-0.8413,0.0942,-0.168,-6.768,4.451,-6.159,0.8631,100824.99
-0.8916,0.0859,-0.2583,-9.329,6.89,-5.671,0.9322,100825.1
-0.9736,0.0527,-0.3135,-9.146,14.146,-6.22,1.0242,100825.45
-1.0508,0.0273,-0.2695,-9.695,16.768,-4.268,1.0851,100825.45
-1.0811,0.0503,-0.2852,-14.39,11.89,-2.012,1.1192,100825.57
-1.1914,0.0869,-0.4849,-19.878,9.939,1.89,1.2892,100825.3
-1.2549,0.0977,-0.5298,-20.732,16.28,0.488,1.3656,100825.58
-1.3574,0.0674,0.0312,-15.732,17.012,-1.768,1.3595,100825.41
-1.2632,0.0601,0.3203,-23.841,15.915,-5.305,1.3045,100824.65
-0.8657,-0.0469,0.1558,-27.378,26.768,-0.122,0.8809,100824.55
-0.8882,-0.0815,0.1528,-16.22,6.341,10.244,0.9049,100825.36
-0.9912,-0.0425,0.0537,-11.89,-34.207,7.561,0.9936,100825.23
-0.9536,0.0137,-0.1328,-15.366,-46.951,-0.549,0.9629,100824.9
-0.8774,0.0234,-0.2427,-17.561,-37.317,-1.098,0.9107,100824.51
-0.8076,0.0205,-0.1455,-13.171,0.427,11.037,0.8209,100824.95
-0.8306,0.021,-0.1787,-7.5,3.171,10.732,0.8498,100824.66
-0.8779,-0.0098,-0.2231,1.22,3.354,13.598,0.9059,100825.2
-0.9189,-0.0239,-0.3203,10.061,6.341,13.415,0.9735,100824.84
-1.0322,-0.0283,-0.2466,17.378,14.024,9.512,1.0616,100824.94
-1.0815,0.0244,-0.1973,13.963,15.366,3.841,1.0997,100825.13
-1.1973,0.0591,-0.397,4.39,2.5,5.122,1.2627,100825.16
-1.2402,0.0576,-0.6572,5.61,5.549,8.11,1.4048,100825.18
-1.2412,-0.0537,-0.3081,13.293,35.976,14.817,1.28,100825.79
-1.3354,-0.0884,0.248,4.695,40.854,18.78,1.3612,100825.5
-1.1699,0.0093,0.3687,-16.768,40.061,9.268,1.2267,100824.94
-0.8716,0.0625,0.1333,-31.585,32.988,-11.22,0.8839,100824.02
-0.9277,-0.0107,0.1064,-37.5,5.061,-21.951,0.9339,100823.35
-0.895,-0.0767,0.0093,-42.561,-42.683,-25.122,0.8983,100823.8
-0.771,-0.0762,-0.2891,-43.841,-77.805,-26.707,0.8269,100824.02
-0.8696,-0.0371,-0.3359,-37.927,-44.207,-22.134,0.933,100824.06
-1.0171,-0.0044,-0.1616,-50.427,14.024,-14.634,1.0299,100824.24
-0.9756,0.0122,-0.0806,-75.671,26.037,-15.732,0.979,100823.99
-0.9019,0.0166,-0.0874,-89.268,13.72,-18.049,0.9062,100824.52
-0.9067,0.0264,-0.1216,-90.61,6.159,-13.659,0.9152,100824.69
-0.8911,0.0518,-0.1768,-80.305,-2.622,-8.72,0.9099,100824.17
-1.0449,-0.0146,-0.3418,-61.28,-1.585,-1.037,1.0995,100825.04
-1.1665,-0.1201,-0.4321,-44.268,11.28,-0.244,1.2498,100825.21
-1.1367,-0.1797,-0.5254,-50.0,29.695,-4.634,1.2651,100825.07
-1.0669,-0.2725,-0.5127,-70.793,51.951,-15.549,1.2146,100825.21
-0.9937,-0.1699,-0.2588,-82.134,44.512,-35.305,1.0408,100825.07
-1.3799,-0.0186,0.1729,-85.305,29.268,-26.402,1.3908,100824.72
-1.5063,-0.0181,0.3149,-100.366,47.988,-18.354,1.539,100824.72
-1.084,-0.0493,0.0371,-101.524,29.146,-24.085,1.0857,100823.48
-0.8823,-0.0205,-0.0117,-80.061,-19.451,-30.061,0.8826,100823.3
-0.7939,-0.0215,0.1396,-77.195,-41.646,-36.646,0.8064,100823.91
-0.7759,-0.0493,-0.0273,-98.598,-43.902,-37.195,0.7779,100824.34
-0.8159,-0.0571,-0.1108,-112.073,-61.037,-29.817,0.8254,100824.06
-0.8486,-0.061,-0.1641,-115.122,-65.427,-16.89,0.8665,100822.76
-0.9258,-0.063,-0.2773,-106.768,-43.049,-6.037,0.9685,100822.77
-1.0088,-0.083,-0.2769,-94.207,-11.829,-0.549,1.0494,100822.77
-0.9937,-0.0942,-0.2363,-89.024,9.756,2.012,1.0257,100822.77
-0.9678,-0.0884,-0.2822,-87.012,14.756,7.195,1.012,100823.48
-1.0645,-0.0415,-0.2783,-77.866,18.598,13.598,1.101,100823.58
-1.1572,0.0088,-0.2876,-61.585,22.073,15.549,1.1925,100823.95
-1.1167,-0.0278,-0.3989,-41.768,19.451,16.28,1.1861,100823.68
-1.1309,-0.126,-0.2217,-22.073,25.183,19.573,1.1592,100823.23
-1.4282,-0.1567,0.4014,-21.951,47.134,25.61,1.4918,100822.88
-1.2002,-0.0366,0.2881,-58.354,43.902,5.122,1.2348,100821.76
-0.9282,-0.0215,-0.0132,-79.756,13.902,-15.183,0.9286,100821.53
-0.9268,-0.0884,-0.0464,-81.646,-18.354,-15.732,0.9321,100821.62
-0.8438,-0.1084,-0.0933,-76.28,-33.354,-14.512,0.8558,100820.7
-0.7534,-0.0894,-0.127,-68.659,-18.72,-17.195,0.7692,100821.56
-0.8916,-0.0552,-0.0249,-72.927,0.183,-17.622,0.8937,100822.23
-0.9854,0.0171,-0.0625,-86.89,-0.793,-19.512,0.9875,100822.7
-0.9243,0.0806,-0.0806,-95.976,0.915,-19.817,0.9313,100822.7
-0.876,0.1128,-0.1465,-99.756,-3.11,-16.28,0.8953,100823.2
-0.9453,0.1123,-0.314,-94.451,-13.72,-11.341,1.0024,100822.95
-1.0835,0.0059,-0.3623,-82.317,-9.39,-5.183,1.1425,100822.66
-1.1484,-0.0576,-0.2437,-76.707,12.927,-2.256,1.1754,100822.81
-1.1792,-0.0415,-0.2954,-83.415,19.085,-2.317,1.2163,100823.27
-1.1597,-0.0566,-0.4922,-83.659,18.72,-4.878,1.2611,100823.39
-1.2437,-0.1104,-0.397,-57.927,29.451,-7.439,1.3101,100823.23
-1.418,-0.0698,0.3037,-33.902,36.768,-20.976,1.4518,100822.86
-1.0942,-0.0874,0.2329,-59.085,41.951,-42.195,1.1222,100823.09
-0.8091,-0.1704,0.0156,-59.512,45.183,-29.207,0.827,100823.38
-0.8213,-0.1299,0.1392,-49.756,11.463,-19.512,0.8431,100823.1
-0.8457,-0.1226,0.209,-69.268,-21.768,-24.573,0.8797,100822.78
-0.9111,-0.1152,-0.041,-103.11,-28.537,-24.451,0.9193,100822.65
-0.8687,-0.0649,-0.0986,-105.244,-56.341,-13.232,0.8766,100822.91
-0.8032,0.0464,-0.1372,-92.683,-62.683,-1.707,0.8162,100822.99
-0.832,0.0762,-0.3418,-76.28,-50.732,1.341,0.9027,100822.56
-0.9648,0.0127,-0.4385,-49.573,-23.11,0.488,1.0599,100821.98
-0.9692,-0.0903,-0.2759,-22.744,15.61,0.122,1.0118,100822.78
-1.041,-0.1108,-0.2031,-9.146,17.744,-0.244,1.0664,100823.02
-1.1587,-0.0962,-0.2456,-2.439,14.878,4.268,1.1883,100822.71
-1.2744,-0.1157,-0.4395,-0.061,8.72,13.476,1.353,100823.68
-1.3184,-0.1699,-0.4014,5.915,5.915,15.427,1.3885,100824.55
-1.4087,-0.1025,0.2114,14.207,31.037,17.744,1.4282,100824.06
-1.3154,0.0371,0.3257,-1.524,57.927,11.037,1.3557,100823.62
-0.8584,0.126,0.0591,-17.683,42.866,-12.378,0.8696,100823.38
-0.8247,0.0889,0.1348,-8.293,-5.183,-16.22,0.8404,100823.19
-0.9106,0.0693,0.0913,4.817,-23.476,-13.415,0.9178,100822.57
-0.9473,0.0723,-0.1616,13.78,-21.159,-10.061,0.9637,100822.36
-0.875,0.0083,-0.207,19.146,-24.817,-7.744,0.8992,100822.92
-0.8076,-0.0425,-0.2168,12.439,-11.098,-4.268,0.8373,100822.51
-0.835,-0.0215,-0.1953,-1.951,9.817,0.61,0.8578,100822.67
-0.8594,0.0166,-0.166,-16.463,14.329,1.098,0.8754,100822.45
-0.8521,0.0449,-0.2095,-23.902,7.805,-2.012,0.8786,100822.89
-0.8672,0.0391,-0.2832,-24.878,8.598,-3.293,0.9131,100823.45
-0.9722,0.0181,-0.2764,-17.134,15.305,-5.671,1.0108,100823.73
-1.1372,0.0044,-0.2637,-10.793,11.707,-3.598,1.1674,100824.21
-1.2549,0.0889,-0.4966,-23.354,7.561,5.671,1.3525,100824.08
-1.1431,0.1489,-0.605,-29.573,6.341,7.5,1.3018,100824.43
-1.2124,0.1118,-0.2734,-18.171,21.463,3.171,1.2479,100824.23
-1.2539,0.019,0.2383,-9.39,44.085,-4.512,1.2765,100823.36
-1.0576,-0.0278,0.2568,-13.171,32.683,-4.573,1.0887,100823.7
-0.8838,-0.0596,0.0474,-6.707,16.159,1.829,0.8871,100824.19
-0.9785,-0.019,0.0986,4.756,-18.049,2.866,0.9837,100824.42
-0.9961,-0.0063,0.0117,-9.268,-54.207,-1.585,0.9962,100824.35
-0.9102,0.0029,-0.2954,-21.707,-68.841,0.061,0.9569,100824.18
-0.8677,-0.0054,-0.313,-9.146,-53.902,5.854,0.9224,100824.41
-0.7852,-0.0366,-0.168,1.341,-10.122,4.024,0.8038,100823.97
-0.8623,-0.0176,-0.1724,1.402,4.146,8.476,0.8795,100823.64
-0.9448,-0.0098,-0.2349,5.061,0.122,7.317,0.9736,100823.77
-1.0176,-0.0068,-0.2559,9.085,5.793,2.561,1.0493,100823.62
-1.0859,-0.0161,-0.2568,9.939,6.159,2.866,1.116,100823.74
-1.2358,0.0347,-0.4224,5.0,-4.268,7.195,1.3065,100823.71
-1.2681,0.0684,-0.6685,9.085,7.744,10.671,1.4351,100823.7
-1.1758,0.0146,-0.2021,24.756,31.28,14.634,1.1931,100824.67
-1.3472,0.0176,0.4111,25.671,40.244,27.073,1.4086,100825.14
-1.1318,0.1553,0.396,15.305,25.122,11.22,1.2091,100824.27
-0.9019,0.166,0.1162,2.744,2.561,-5.61,0.9243,100823.76
-0.9482,0.0415,0.0894,-0.305,-31.341,-5.915,0.9533,100823.48
-0.8965,-0.0181,-0.1021,0.671,-53.78,-0.854,0.9025,100823.52
-0.7822,-0.0186,-0.2661,11.829,-40.549,-2.012,0.8265,100824.15
-0.7808,0.0015,-0.1523,22.378,-20.122,-9.085,0.7955,100824.38
-0.8286,0.0664,-0.0981,14.268,-10.915,-9.573,0.837,100824.68
-0.8604,0.1152,-0.124,0.183,-10.488,-7.256,0.8768,100824.29
-0.9282,0.1514,-0.2065,-10.427,-8.963,-7.317,0.9629,100824.02
-0.9946,0.1123,-0.3062,-13.232,2.256,-5.793,1.0467,100824.4
-1.0142,0.0586,-0.2622,-10.976,12.988,-4.024,1.0491,100825.58
-1.0811,0.0386,-0.1948,-12.927,11.646,-2.439,1.0991,100825.69
-1.1919,0.0269,-0.3911,-17.927,9.634,-2.195,1.2547,100826.26
-1.2119,0.0703,-0.5488,-14.878,24.268,-2.988,1.3323,100826.44
-1.2578,0.0791,-0.1016,-10.122,29.878,-7.927,1.2644,100825.98
-1.2124,0.0635,0.4009,-11.951,21.951,-14.573,1.2785,100825.49
-0.9673,-0.0049,0.2441,-16.037,31.28,-4.207,0.9976,100824.39
-0.9873,-0.02,0.1772,-3.232,18.354,9.207,1.0033,100824.41
-1.1074,0.0288,0.1226,-4.634,-21.402,7.5,1.1146,100824.57
-0.9863,0.0859,-0.1929,-23.171,-50.854,2.256,1.0087,100825.04
-0.8657,0.083,-0.335,-21.951,-34.268,2.439,0.932,100825.02
-0.7515,0.0327,-0.1416,-6.159,6.89,7.134,0.7654,100824.89
-0.7168,0.0156,-0.1016,1.829,14.146,12.134,0.7241,100824.66
-0.7729,-0.0391,-0.123,9.024,4.817,13.78,0.7837,100824.48
-0.918,-0.0771,-0.1934,13.171,1.463,11.524,0.9413,100824.11
-0.9956,-0.022,-0.3618,13.902,5.183,2.561,1.0595,100823.73
-1.0469,0.0654,-0.3105,16.463,6.951,-1.951,1.0939,100823.79
-1.1489,0.105,-0.2383,16.89,2.988,4.39,1.1781,100823.86
-1.1948,0.147,-0.4771,19.878,4.085,12.195,1.2949,100824.76
-1.146,0.1196,-0.5576,26.585,16.159,10.854,1.2801,100824.81
-1.21,0.0156,-0.0181,31.098,28.049,11.89,1.2102,100824.88
-1.2324,0.0205,0.3198,18.537,29.451,20.305,1.2734,100824.79
-0.9893,0.123,0.2646,-0.122,18.902,17.073,1.0314,100824.48
-0.98,0.1235,0.21,-11.159,-17.927,14.512,1.0098,100823.88
-1.1143,0.0249,-0.1108,-4.573,-45.366,12.805,1.12,100823.8
-1.0298,-0.0396,-0.2944,19.451,-39.878,2.256,1.0718,100823.87
-0.7803,-0.064,-0.1763,20.854,-8.598,-10.0,0.8025,100823.66
-0.6665,-0.04,-0.1128,2.439,-2.744,-12.805,0.6772,100823.76
-0.7358,0.0444,-0.1113,-15.61,-6.159,-9.817,0.7455,100823.7
-0.877,0.1348,-0.2095,-30.549,-4.146,-8.598,0.9116,100824.27
-1.0142,0.1099,-0.3457,-33.659,3.293,-8.598,1.0771,100825.29
-0.9995,0.0542,-0.3081,-27.317,10.122,-8.78,1.0473,100825.82
-0.9268,0.0479,-0.2275,-29.024,5.61,-10.549,0.9555,100825.8
-1.0117,0.0674,-0.271,-36.524,-1.707,-12.317,1.0495,100825.57
-1.0811,0.0903,-0.3379,-35.61,-0.183,-12.134,1.1362,100825.98
-1.167,0.1069,-0.4995,-31.89,2.927,-8.049,1.2739,100826.43
-1.3101,0.1172,-0.353,-27.622,11.707,-6.89,1.3618,100826.24
-1.4614,0.0933,0.1841,-30.915,18.354,-8.293,1.4759,100825.9
-1.23,0.0073,0.2124,-43.537,30.793,-10.976,1.2482,100825.5
-0.7681,-0.0913,0.1035,-34.939,23.354,-7.744,0.7804,100824.61
-0.9526,-0.0522,-0.0991,-49.329,-44.512,-10.122,0.9592,100822.89
-0.9121,0.0166,-0.2871,-48.78,-49.817,-2.805,0.9564,100822.15
-0.8809,0.0322,-0.2388,-31.646,-17.622,4.024,0.9132,100822.45
-0.7974,0.0347,-0.1685,-22.744,21.22,3.11,0.8157,100822.2
-0.7827,-0.0127,-0.1743,-22.134,19.634,6.463,0.802,100822.27
-0.8813,-0.0596,-0.2168,-18.476,8.354,10.793,0.9096,100822.18
-0.9971,-0.0537,-0.2886,-12.317,9.695,9.268,1.0394,100822.1
-1.1011,-0.0205,-0.2412,-8.78,11.89,1.098,1.1274,100823.16
-1.2056,-0.0044,-0.2954,-11.341,10.0,-1.646,1.2412,100823.18
-1.2153,-0.0073,-0.5317,-8.963,17.5,6.951,1.3266,100824.22
-1.2217,-0.0366,-0.2163,5.793,33.354,14.695,1.2412,100825.38
-1.2676,-0.0483,0.2354,-1.402,39.817,16.098,1.2901,100825.15
-1.1392,-0.0054,0.2671,-20.122,43.72,8.902,1.1701,100823.89
-1.0181,-0.0024,0.146,-33.963,35.366,-2.683,1.0285,100823.38
-1.0464,-0.0586,-0.0117,-49.512,2.622,-7.5,1.0481,100823.52
-0.9873,-0.103,-0.1743,-48.963,-30.915,-7.012,1.0079,100823.59
-0.752,-0.1172,-0.248,-32.561,-25.122,-16.646,0.8004,100824.15
-0.6851,-0.0649,-0.1353,-26.28,-1.951,-28.537,0.7013,100824.46
-0.7769,-0.0068,-0.0796,-39.451,7.378,-31.037,0.781,100823.83
-0.9272,0.0356,-0.085,-57.134,0.854,-28.293,0.9318,100823.59
-1.0361,0.0771,-0.1685,-71.098,-7.744,-23.476,1.0526,100823.28
-1.0283,0.0762,-0.3125,-78.293,-15.122,-15.366,1.0775,100823.56
-1.0288,-0.0054,-0.3379,-78.598,-8.537,-6.951,1.0829,100823.73
-1.1143,-0.123,-0.3203,-82.012,12.195,-9.085,1.1659,100824.7
-1.1069,-0.1265,-0.4639,-83.537,3.78,-14.085,1.2068,100824.62
-1.0718,-0.1211,-0.5376,-83.11,7.195,-21.463,1.2051,100824.43
-1.207,-0.1265,-0.186,-84.39,14.512,-24.024,1.2278,100824.28
-1.3296,-0.0933,0.2144,-106.402,31.463,-12.134,1.35,100824.18
-1.0654,-0.1104,0.1592,-125.488,36.037,-8.232,1.0829,100823.59
-0.9058,-0.1514,0.2163,-119.329,7.195,-11.829,0.9435,100824.26
-0.9038,-0.1499,0.1948,-123.72,-1.037,-14.207,0.9366,100823.68
-0.8911,-0.1074,0.0547,-132.5,-15.915,-15.976,0.8992,100823.25
-0.8848,-0.0366,-0.0845,-128.354,-45.488,-22.5,0.8895,100823.18
-0.8149,0.022,-0.1143,-110.183,-59.329,-25.0,0.8232,100822.88
-0.8242,0.0532,-0.1313,-93.354,-48.354,-19.268,0.8363,100822.49
-0.9268,0.0488,-0.2266,-77.134,-26.646,-11.89,0.9553,100821.88
-1.0352,0.0112,-0.2969,-59.146,-7.256,-2.927,1.0769,100822.62
-1.0771,-0.0889,-0.3047,-36.524,12.317,16.037,1.1229,100824.01
-1.1904,-0.0747,-0.2192,-29.39,19.207,26.22,1.2128,100824.22
-1.2236,-0.0342,-0.3335,-30.976,21.159,30.366,1.2687,100823.85
-1.2349,-0.0732,-0.1484,-25.732,26.951,29.024,1.2459,100823.86
-1.2939,-0.062,0.312,-26.402,40.244,30.061,1.3325,100823.58
-1.0034,0.0396,0.2695,-45.244,44.085,14.878,1.0397,100822.41
-0.9204,0.0332,0.187,-58.049,18.841,-0.305,0.9398,100822.72
-0.958,-0.0322,0.1392,-71.28,-12.256,-9.024,0.9686,100822.11
-0.8774,-0.0649,-0.0273,-72.988,-37.439,-8.902,0.8803,100822.38
-0.8213,-0.0073,-0.2129,-63.415,-41.646,-9.085,0.8485,100822.85
-0.9985,0.0625,-0.0552,-70.915,21.22,-10.122,1.002,100822.5
-0.9209,0.0703,-0.0337,-85.549,22.866,-14.634,0.9242,100822.05
-0.8633,0.0898,-0.0479,-87.439,12.622,-17.683,0.8693,100822.46
-0.9004,0.1226,-0.1479,-84.451,7.5,-17.073,0.9207,100822.78
-0.9702,0.1357,-0.2358,-73.293,4.329,-11.22,1.0077,100823.51
-1.0757,0.082,-0.2256,-50.976,-0.488,-5.976,1.1021,100823.55
-1.1792,-0.0166,-0.2661,-33.171,-0.305,-7.073,1.209,100823.83
-1.2085,-0.0425,-0.3623,-25.305,3.78,-11.707,1.2624,100824.04
-1.1289,-0.0029,-0.4346,-29.939,26.951,-17.561,1.2097,100825.29
-1.1562,0.0459,-0.1177,-36.707,36.22,-20.488,1.1631,100824.62
-1.2944,0.0537,0.3496,-41.707,16.402,-18.72,1.3419,100823.88
-1.0195,-0.0186,0.2612,-48.171,31.524,-19.146,1.0526,100823.51
-0.9839,-0.0474,0.1812,-31.707,35.549,-11.22,1.0015,100823.8
-1.0381,-0.041,0.208,-25.366,5.366,-16.402,1.0595,100823.88
-0.9458,-0.0244,0.1089,-48.171,-31.098,-22.195,0.9524,100823.96
-0.8071,0.0474,-0.2026,-79.329,-43.659,-15.793,0.8335,100824.38
-0.7583,0.0801,-0.3203,-77.5,-36.707,-0.305,0.8271,100823.11
-0.8496,0.0264,-0.1704,-58.963,-4.207,15.122,0.8669,100822.4
-0.8677,0.0039,-0.1426,-48.11,13.963,16.28,0.8793,100822.23
-0.9014,-0.0415,-0.1519,-38.293,5.915,14.085,0.915,100821.26
-0.9663,-0.0454,-0.2422,-30.427,3.476,11.768,0.9972,100821.52
-1.0088,-0.0376,-0.3394,-20.915,9.573,10.305,1.065,100822.3
-1.064,-0.0103,-0.2363,-9.146,11.707,10.671,1.0899,100822.9
-1.2012,0.0532,-0.2695,-7.073,19.817,14.695,1.2322,100823.83
-1.1831,-0.0044,-0.145,2.5,29.756,16.585,1.192,100824.49
-1.4888,-0.0068,0.3174,-4.756,33.78,21.829,1.5222,100824.42
-0.9526,0.1108,0.1416,-14.329,18.72,-14.695,0.9695,100823.86
-0.917,0.0771,0.0723,9.329,-7.744,-24.207,0.9231,100823.84
-1.0093,0.082,0.0371,30.366,-31.768,-13.841,1.0133,100823.32
-0.8823,0.1099,-0.1777,22.988,-32.195,-3.72,0.9067,100823.29
-0.7441,0.0273,-0.228,11.159,-8.415,-6.22,0.7788,100822.67
-0.7031,-0.022,-0.1567,-0.976,4.085,-7.134,0.7207,100823.96
-0.8223,0.0181,-0.1367,-11.402,5.427,-1.037,0.8338,100823.52
-0.8433,0.0732,-0.1978,-19.634,9.817,-3.598,0.8692,100823.57
-0.9614,0.0576,-0.3013,-27.805,15.61,0.244,1.0092,100823.23
-1.0156,0.041,-0.355,-32.622,19.756,-6.341,1.0767,100823.23
-0.916,0.0732,-0.2676,-27.195,12.134,-19.451,0.9571,100822.98
-1.0693,0.1367,-0.29,-24.573,-1.28,-15.793,1.1164,100822.32
-1.2446,0.1401,-0.5347,-29.085,-0.61,-6.159,1.3618,100822.52
-1.2505,0.1064,-0.5752,-32.683,14.573,1.463,1.3805,100822.7
-1.3105,0.0703,-0.1641,-19.573,21.341,-3.049,1.3226,100822.95
-1.2451,0.0171,0.1162,-11.524,33.841,-9.146,1.2506,100824.04
-0.9683,-0.0269,0.0459,-5.854,58.72,-3.049,0.9697,100823.59
-0.9673,-0.0459,0.0493,7.134,38.72,3.354,0.9696,100823.26
-0.9609,-0.0166,0.124,5.183,7.5,-0.183,0.9691,100823.37
-0.8516,-0.0176,-0.0093,-19.207,-18.537,-3.537,0.8518,100822.23
-0.7812,-0.0171,-0.1597,-31.707,-46.402,-2.317,0.7976,100822.11
-0.709,0.0093,-0.2544,-25.427,-64.085,1.341,0.7533,100822.27
-0.978,-0.0151,-0.3315,-5.488,-17.317,10.183,1.0328,100823.65
-0.9937,-0.0264,-0.293,-2.012,9.695,6.646,1.0363,100823.91
-0.957,-0.0171,-0.3052,-0.915,11.89,6.28,1.0047,100824.59
-1.0142,-0.0234,-0.2271,2.012,7.561,7.073,1.0395,100824.1
-1.0796,-0.0273,-0.2544,6.159,5.915,7.256,1.1095,100824.12
-1.1387,0.0117,-0.4644,11.707,-6.159,8.11,1.2298,100824.51
-1.1675,0.0225,-0.6079,23.232,-10.549,10.061,1.3165,100824.66
-1.2769,0.0107,-0.0503,42.134,12.317,15.061,1.2779,100824.04
-1.2134,0.062,0.3379,38.415,27.195,17.195,1.2611,100823.71
-0.939,0.1499,0.1133,11.037,17.256,11.951,0.9576,100823.34
-0.9927,0.2202,0.0557,-3.11,-8.963,16.524,1.0183,100823.67
-1.1655,0.2393,0.0771,-3.171,-32.683,22.134,1.1923,100823.66
-0.9385,0.1924,-0.1104,-4.39,-47.378,7.683,0.9643,100823.9
-0.7412,0.147,-0.2256,-0.915,-43.72,-1.89,0.7886,100823.47
-0.7148,0.0503,-0.1836,7.134,-16.463,-13.049,0.7398,100823.38
-0.7959,0.0674,-0.1489,1.402,12.622,-16.159,0.8125,100822.71
-0.8662,0.1118,-0.1885,-14.573,17.195,-9.512,0.8935,100822.96
-0.894,0.1113,-0.229,-18.354,12.805,-1.707,0.9296,100823.47
-0.9604,0.0737,-0.2144,-7.988,9.634,2.744,0.9868,100823.01
-1.0527,0.0532,-0.208,1.89,6.28,0.488,1.0744,100824.01
-1.0503,0.0596,-0.2358,2.256,-0.244,-9.695,1.0781,100824.89
-1.0459,0.0391,-0.3755,-5.549,-9.512,-17.5,1.1119,100824.82
-1.1206,0.0732,-0.5381,-13.049,-7.256,-15.915,1.2453,100824.14
-1.2407,0.1704,-0.3252,-17.744,7.561,-9.39,1.2939,100823.52
-1.4092,0.2217,0.1636,-21.098,9.024,-6.28,1.4359,100823.18
-1.1558,0.1089,0.2129,-23.659,18.78,-6.89,1.1802,100823.78
-0.8423,0.0361,0.1021,-17.5,4.39,-0.549,0.8492,100823.39
-0.8652,0.0327,0.1421,-17.439,-27.622,5.549,0.8774,100822.72
-0.8564,-0.0063,0.0771,-30.0,-40.732,-3.659,0.8599,100822.84
-0.8613,-0.0303,-0.0884,-40.122,-50.915,-10.488,0.8664,100822.55
-0.9009,0.0044,-0.2163,-37.012,-47.744,-10.488,0.9265,100823.09
-0.9141,0.0288,-0.2188,-23.841,-15.61,-11.646,0.9403,100823.74
-0.8804,0.0537,-0.1553,-15.671,6.768,-16.098,0.8956,100824.22
-0.8066,0.0537,-0.1602,-17.683,11.646,-15.488,0.8241,100823.96
-0.8403,0.0229,-0.2705,-20.183,15.488,-3.78,0.8831,100823.68
-0.9722,-0.0083,-0.2559,-15.915,19.939,7.561,1.0053,100823.8
-1.1709,0.0249,-0.2266,-10.122,19.207,11.585,1.1929,100824.02
-1.3979,0.0161,-0.2759,11.098,32.805,17.439,1.425,100824.08
-1.3823,-0.0415,0.4233,16.707,21.22,20.305,1.4463,100824.23
-1.0259,0.0669,0.3486,7.317,9.878,7.683,1.0856,100823.6
-0.8721,0.1665,0.2759,0.488,9.939,-4.756,0.9297,100824.12
-1.1162,0.1177,0.166,-4.939,-9.329,-10.183,1.1346,100823.52
-1.064,0.0664,-0.2515,17.927,-17.134,-9.085,1.0953,100823.66
-0.8169,0.0137,-0.1323,41.098,-15.305,-6.829,0.8277,100822.69
-0.6636,-0.022,-0.0649,30.793,-24.39,-7.5,0.6671,100822.69
-0.6885,-0.0078,-0.1035,22.378,-21.89,-9.878,0.6963,100822.2
-0.8149,0.0244,-0.1714,10.488,-4.817,-9.939,0.8331,100822.55
-0.9385,0.0669,-0.2231,0.061,5.976,-10.427,0.967,100823.19
-1.0278,0.0835,-0.2461,-6.951,12.378,-11.768,1.0602,100823.66
-1.0054,0.0269,-0.186,-10.366,9.817,-8.902,1.0228,100823.74
-1.0552,0.0107,-0.1626,-10.488,2.927,-6.22,1.0677,100823.55
-1.0044,0.0503,-0.2671,-10.122,-5.061,-11.037,1.0405,100823.28
-1.0894,0.1196,-0.4443,-13.354,-2.012,0.0,1.1826,100823.91
-1.2812,0.1401,-0.4443,-21.951,13.963,7.195,1.3633,100823.43
-1.2241,0.061,-0.0464,-27.378,9.451,2.256,1.2265,100822.78
-1.3125,0.0586,0.3267,-30.244,11.098,6.463,1.3538,100822.79
-1.1943,-0.0752,0.2124,-25.976,40.183,11.89,1.2154,100821.95
-1.0093,-0.1104,0.2183,1.159,4.268,16.463,1.0385,100821.43
-0.9502,-0.0713,0.3188,1.951,-41.341,16.341,1.0048,100821.88
-0.9062,-0.0386,-0.1528,-36.22,-26.341,16.22,0.9199,100822.58
-0.8555,-0.041,-0.4004,-22.988,-29.451,7.805,0.9454,100822.48
-0.707,0.0024,-0.001,-1.89,-10.488,2.134,0.707,100822.53
-0.7466,0.0288,-0.0215,-11.768,-3.841,8.72,0.7474,100821.59
-0.8506,0.0117,-0.1172,-11.585,-15.671,14.268,0.8587,100821.39
-0.9531,-0.0405,-0.209,-4.756,-14.085,13.659,0.9766,100822.32
-1.0112,-0.0376,-0.3188,-2.378,3.841,8.11,1.061,100821.9
-1.0308,-0.021,-0.2725,-2.988,22.622,5.854,1.0664,100822.56
-1.0405,-0.0225,-0.1636,-8.171,34.207,8.537,1.0535,100823.45
-1.1807,-0.0352,-0.2373,-11.951,28.72,10.732,1.2048,100823.61
-1.1768,-0.021,-0.4785,-11.768,11.646,3.598,1.2705,100823.23
-1.2583,-0.0371,-0.2051,-10.671,20.427,-0.976,1.2754,100823.57
-1.3784,-0.0586,0.3022,-19.634,56.707,4.268,1.4124,100822.96
-1.1079,0.0879,0.3628,-34.451,55.244,2.317,1.1691,100823.0
-0.9165,0.1094,0.0059,-56.28,-1.22,-5.976,0.923,100822.04
-1.019,0.0356,0.1504,-49.878,-18.11,-12.805,1.0307,100823.03
-1.0513,0.0303,-0.0767,-40.244,-26.951,-11.89,1.0545,100823.53
-0.9121,0.0156,-0.2275,-31.951,-30.244,-13.11,0.9402,100823.91
-0.7534,-0.0254,-0.1104,-32.012,-8.841,-17.439,0.7619,100824.19
-0.6582,0.0049,-0.0884,-49.024,4.939,-20.427,0.6641,100823.45
-0.7495,0.0459,-0.0327,-66.707,14.512,-14.146,0.7516,100822.26
-0.918,0.0596,-0.043,-75.488,16.585,-3.476,0.9209,100822.45
-1.1162,0.0312,-0.2065,-74.878,5.976,0.427,1.1356,100822.99
-1.1001,-0.0034,-0.356,-65.061,-2.561,-9.024,1.1563,100823.03
-1.0923,-0.0566,-0.3149,-57.5,15.915,-12.134,1.1382,100823.18
-1.1245,-0.0796,-0.3423,-56.341,31.89,-11.098,1.1781,100823.05
-1.1279,-0.0732,-0.4492,-54.024,30.305,-16.89,1.2163,100823.67
-1.0991,-0.1426,-0.4243,-56.89,34.268,-28.049,1.1868,100823.76
-1.1392,-0.1826,-0.0166,-71.159,35.732,-36.159,1.1538,100823.23
-1.2148,-0.1016,0.3589,-93.963,28.415,-38.963,1.2708,100823.22
-1.0479,-0.124,0.2383,-114.268,15.793,-41.768,1.0817,100823.32
-1.0737,-0.1763,0.1885,-110.915,-17.561,-33.415,1.1043,100823.04
-1.0078,-0.1387,0.1475,-108.354,-43.537,-26.768,1.0279,100821.97
-0.8848,-0.1387,0.0337,-117.378,-53.72,-21.037,0.8962,100821.18
-0.7808,-0.0723,-0.1528,-126.098,-60.793,-23.78,0.7989,100821.33
-0.7832,-0.0498,-0.0854,-124.329,-53.171,-20.061,0.7894,100821.52
-0.9165,-0.0601,-0.0576,-123.841,-27.561,-6.22,0.9203,100821.18
-1.0244,-0.0464,-0.1323,-115.183,-18.049,7.012,1.034,100821.79
-1.0679,-0.0322,-0.2085,-97.744,-23.72,15.244,1.0885,100821.87
-1.0132,-0.0522,-0.2915,-78.049,-17.683,15.793,1.0556,100821.7
-1.019,-0.1074,-0.2632,-56.768,1.768,15.183,1.0579,100822.19
-1.1479,-0.1704,-0.21,-41.951,13.415,17.561,1.1794,100822.8
-1.2939,-0.2188,-0.3174,-35.671,20.488,18.049,1.3501,100822.41
-1.2856,-0.293,-0.2627,-30.061,22.5,12.256,1.3445,100823.83
-1.2769,-0.2876,0.291,-30.61,28.415,7.195,1.3408,100823.91
-1.123,-0.1763,0.4697,-38.293,40.549,-4.817,1.23,100823.84
-0.8677,0.0117,0.207,-53.902,34.329,-19.756,0.8921,100822.18
-0.7607,0.0278,0.0571,-72.805,-13.293,-25.183,0.7634,100821.8
-0.793,-0.0239,0.1577,-80.854,-47.012,-13.659,0.8089,100821.77
-0.8628,-0.0591,0.0029,-87.988,-25.671,-1.524,0.8648,100822.12
-0.9536,-0.0806,-0.0957,-102.256,-3.354,7.073,0.9618,100822.84
-1.0571,-0.0933,0.0361,-119.024,11.707,15.305,1.0618,100822.05
-0.9746,-0.0093,0.0728,-127.561,14.573,8.293,0.9774,100821.94
-0.8984,0.042,0.0054,-129.634,4.451,0.671,0.8994,100821.97
-0.8745,0.0483,-0.0796,-126.463,-11.341,-3.78,0.8795,100822.27
-0.9878,0.0459,-0.2095,-114.329,-27.683,-5.305,1.0108,100821.73
-1.1919,-0.0068,-0.3477,-91.585,-26.707,-3.537,1.2416,100821.68
-1.2109,-0.1162,-0.2456,-66.402,6.463,-6.646,1.241,100822.9
-1.103,-0.1611,-0.2656,-57.317,23.232,-16.707,1.1459,100823.17
-1.1177,-0.124,-0.2925,-58.415,23.293,-23.415,1.1619,100823.54
-1.251,-0.0552,0.2095,-59.146,16.28,-20.183,1.2696,100823.32
-1.1919,0.0127,0.5176,-76.585,4.329,-15.915,1.2995,100823.25
-0.8882,-0.0083,0.3086,-83.354,7.378,-15.671,0.9403,100823.71
-1.123,-0.0698,0.2441,-69.451,1.585,0.61,1.1514,100822.81
-1.0889,-0.0522,0.0522,-71.951,-19.451,0.0,1.0914,100822.89
-0.8804,-0.0386,-0.1367,-70.915,-24.024,-1.951,0.8918,100822.84
-0.7266,-0.001,-0.1172,-57.134,-10.183,1.646,0.736,100821.67
-0.6704,-0.0005,-0.0605,-46.524,-0.305,4.329,0.6731,100821.54
-0.8081,-0.0347,-0.0933,-38.11,6.341,7.439,0.8142,100821.55
-0.9375,-0.085,-0.1152,-25.976,5.976,11.098,0.9484,100821.36
-0.9946,-0.0918,-0.1665,-16.829,4.634,11.829,1.0126,100821.2
-1.0337,-0.0269,-0.2461,-7.195,3.415,8.171,1.0629,100822.39
-1.1064,-0.019,-0.1899,0.0,5.122,3.78,1.1228,100822.92
-1.2026,-0.0503,-0.2012,3.171,13.11,7.073,1.2204,100824.55
-1.291,0.0273,-0.4331,16.22,26.037,13.171,1.362,100824.8
-1.2715,-0.0151,-0.1074,32.012,34.756,13.841,1.2761,100824.16
-0.8833,0.0391,0.3076,12.012,17.317,20.305,0.9361,100823.3
-0.814,0.1104,0.1553,5.305,5.732,15.427,0.836,100823.75
-1.0337,0.0977,0.0718,3.11,-15.183,9.329,1.0408,100823.49
-1.1772,0.0605,-0.0811,25.915,-19.024,0.488,1.1816,100823.52
-1.041,-0.0083,-0.1538,45.732,-12.378,-10.122,1.0523,100823.16
-0.8657,-0.0503,-0.1147,35.061,-7.744,-11.524,0.8747,100823.41
-0.7324,-0.0137,-0.0625,6.463,0.671,-6.159,0.7352,100822.74
-0.7046,0.0767,-0.0742,-18.415,1.341,-5.671,0.7126,100823.09
-0.813,0.0854,-0.1626,-31.402,-5.244,-7.012,0.8335,100822.86
-0.9932,0.0312,-0.2461,-32.256,-4.878,-4.939,1.0237,100822.2
-1.1089,-0.0029,-0.207,-29.817,9.085,-3.537,1.1281,100822.45
-1.0894,0.0312,-0.1553,-35.488,16.524,-5.183,1.1008,100823.09
-1.084,0.0508,-0.2427,-43.598,6.159,-8.232,1.112,100822.62
-1.1519,0.0605,-0.436,-35.061,2.195,-8.476,1.2331,100822.39
-1.2217,0.1411,-0.3916,-21.524,10.854,-14.39,1.2906,100822.31
-1.2812,0.1396,-0.001,-22.622,10.366,-19.146,1.2888,100822.4
-1.2202,0.0347,0.2358,-30.366,2.683,-19.817,1.2433,100822.22
-0.9741,-0.0991,0.2212,-25.854,4.756,-14.756,1.0038,100822.55
-0.9219,-0.1123,0.1987,-11.707,-7.5,-6.951,0.9497,100822.7
-0.9434,-0.021,0.0479,-8.537,-17.622,-6.768,0.9448,100822.93
-0.873,0.0366,-0.1099,-5.0,-17.073,-7.073,0.8807,100822.47
-0.7852,0.0454,-0.1108,2.5,-12.073,-3.049,0.7942,100822.88
-0.6792,0.0244,-0.0869,8.049,-9.756,3.78,0.6852,100822.33
-0.814,-0.0732,-0.0781,17.866,-6.524,7.439,0.821,100823.24
-0.9209,-0.1235,-0.1294,24.756,-1.646,7.561,0.9381,100824.08
-0.9946,-0.0923,-0.1855,23.841,0.61,13.598,1.016,100824.08
-0.9746,0.0054,-0.2275,20.61,0.488,7.195,1.0008,100824.32
-0.9707,0.0479,-0.231,19.207,1.768,2.805,0.9989,100824.38
-1.0708,0.0166,-0.1816,18.476,4.695,9.512,1.0862,100823.94
-1.2729,0.0278,-0.3428,17.561,7.073,20.671,1.3186,100824.45
-1.3193,0.1079,-0.627,28.78,18.476,19.024,1.4647,100824.73
-1.1709,0.0366,-0.2246,51.951,42.256,13.963,1.1928,100825.05
-1.2817,-0.0107,0.4307,51.28,26.585,34.634,1.3522,100823.91
-1.1899,0.0942,0.4658,28.78,19.39,40.061,1.2813,100823.07
-0.9146,0.1494,0.1694,15.793,17.988,21.707,0.942,100823.16
-0.9629,0.0596,0.0996,24.634,-15.305,4.817,0.9699,100822.76
-0.9282,0.0,0.0098,42.195,-57.5,0.915,0.9283,100823.29
-0.8989,-0.0249,-0.2554,62.5,-63.049,2.378,0.9348,100822.35
-0.7715,-0.0112,-0.1616,78.476,-24.573,-13.049,0.7883,100822.1
-0.7559,-0.0151,-0.0615,56.829,-4.939,-16.28,0.7585,100822.19
-0.7891,0.0571,-0.1016,20.488,0.0,-9.695,0.7976,100822.38
-0.8887,0.1191,-0.1328,-2.866,-1.098,-2.988,0.9064,100821.65
-0.9736,0.1055,-0.2305,-10.305,0.0,0.732,1.0061,100822.19
-1.0146,0.0498,-0.2227,-7.744,9.634,-0.854,1.04,100822.02
-1.0854,0.0337,-0.1353,-6.951,3.78,-6.341,1.0944,100822.39
-1.2808,0.02,-0.2764,-11.28,-10.061,-9.085,1.3104,100823.02
-1.3706,0.0146,-0.5635,-30.122,-5.061,-3.537,1.482,100823.12
-1.3135,0.0039,-0.3857,-42.378,7.317,-4.695,1.369,100823.8
-1.1104,0.0542,0.2256,-41.768,21.463,-22.561,1.1343,100823.23
-1.0728,0.0684,0.3457,-53.171,40.488,-9.085,1.1292,100821.97
-0.9604,-0.0073,0.0161,-54.512,84.207,7.622,0.9606,100823.19
-0.8022,0.0005,0.1304,-14.39,56.402,11.768,0.8128,100823.02
-0.814,0.041,0.3462,5.366,0.854,2.866,0.8855,100823.38
-1.0093,0.0991,-0.1582,-40.244,0.488,-1.402,1.0264,100822.69
-0.9634,0.0845,-0.1753,-17.317,-44.024,-12.439,0.9828,100823.26
-0.77,0.0483,-0.0605,-6.463,-70.183,-7.378,0.7739,100822.85
-0.7402,0.0308,-0.3159,-7.927,-58.902,-2.317,0.8054,100822.28
-0.8394,-0.0132,-0.3462,12.378,-5.366,-9.634,0.908,100822.57
-0.9399,0.0073,-0.1724,10.732,18.841,-7.195,0.9556,100823.26
-1.0654,0.0557,-0.2256,-1.402,5.915,6.098,1.0905,100824.03
-1.1245,0.0703,-0.1812,-3.11,3.659,12.439,1.1412,100823.37
-1.2808,0.0742,-0.3223,3.598,2.439,16.646,1.3228,100823.36
-1.1226,0.1519,-0.604,23.354,5.793,2.744,1.2838,100823.72
-1.0552,0.1187,-0.3188,36.89,14.634,8.537,1.1087,100824.23
-1.2412,-0.0005,0.3525,9.39,13.78,27.622,1.2903,100824.05
-0.7651,0.0703,0.2354,4.756,13.11,13.476,0.8036,100823.5
-0.978,0.04,0.2993,4.634,17.439,20.427,1.0236,100823.45
-1.0293,-0.0273,0.0757,-0.976,-46.463,4.634,1.0324,100822.34
-0.9668,-0.0747,-0.1406,2.317,-87.439,-8.659,0.9798,100822.37
-0.9258,-0.0659,-0.3564,10.244,-60.122,-17.683,0.9942,100822.62
-0.8516,0.0112,-0.1592,14.512,-3.78,-20.0,0.8664,100822.57
-0.77,0.0703,-0.0327,-2.439,13.963,-18.78,0.7739,100821.91
-0.8149,0.1162,-0.082,-15.183,3.476,-17.866,0.8273,100821.18
-1.061,0.0938,-0.1812,-16.341,5.549,-12.866,1.0805,100821.13
-1.063,0.0781,-0.251,-12.195,15.549,-15.732,1.095,100821.45
-1.0718,0.1055,-0.228,-13.963,20.427,-9.512,1.1008,100821.93
-1.0962,0.103,-0.2461,-20.427,22.683,-2.927,1.1282,100821.8
-1.1055,0.0703,-0.3984,-17.683,19.207,-1.341,1.1772,100821.71
-1.1577,0.0093,-0.228,-4.756,15.854,-0.61,1.18,100820.66
-1.3286,-0.064,0.2378,-6.89,15.976,7.805,1.3512,100820.85
-1.2104,-0.1353,0.2251,-29.024,36.951,11.098,1.2386,100820.63
-1.0322,-0.1914,0.1196,-31.037,22.317,8.902,1.0566,100821.07
-0.9502,-0.1455,0.1812,-23.171,-11.524,3.354,0.9782,100821.28
-0.8687,-0.0654,0.0112,-32.744,-26.951,-6.28,0.8712,100822.28
-0.8569,-0.0098,-0.1851,-39.878,-37.988,-13.232,0.8767,100823.41
-0.8286,-0.0049,-0.1655,-36.341,-27.256,-7.744,0.845,100823.28
-0.8154,-0.0137,-0.0889,-32.378,-6.037,0.427,0.8204,100822.95
-0.8438,-0.0117,-0.0972,-31.28,1.22,3.171,0.8494,100821.47
-0.9478,-0.0371,-0.2671,-16.829,1.463,10.183,0.9854,100821.05
-0.9902,-0.0542,-0.2642,-6.89,9.207,9.878,1.0263,100821.75
-1.0991,-0.0459,-0.1772,-4.573,10.061,6.829,1.1143,100821.89
-1.249,-0.0005,-0.2979,-6.89,5.549,8.78,1.284,100822.09
-1.2808,0.0142,-0.4985,-0.671,16.22,13.72,1.3744,100822.5
-1.231,-0.0903,-0.1333,4.695,35.915,18.78,1.2414,100822.46
-1.3262,-0.0967,0.3359,-14.207,36.768,22.744,1.3715,100822.34
-0.9609,-0.0059,0.2603,-41.829,46.341,7.378,0.9956,100821.41
-1.0493,-0.0933,0.1216,-56.89,-2.378,-7.622,1.0604,100821.76
-1.042,-0.0791,-0.2183,-52.317,-25.732,-9.024,1.0675,100822.02
-0.9556,-0.0361,-0.2681,-36.463,-13.354,-16.707,0.9931,100821.35
-0.8574,-0.0259,-0.1025,-41.89,12.744,-22.683,0.8639,100820.12
-0.8022,0.0073,-0.0322,-65.061,19.329,-18.11,0.8029,100820.54
-0.8076,0.0288,-0.0029,-80.793,10.366,-13.598,0.8081,100820.26
-0.8784,0.0566,-0.0645,-87.256,-1.341,-16.829,0.8826,100821.01
-0.9546,0.0981,-0.1943,-85.854,-12.317,-18.11,0.9791,100820.23
-1.0156,0.1196,-0.2944,-77.622,-10.915,-14.146,1.0642,100820.26
-1.041,0.0615,-0.2612,-64.329,3.232,-9.39,1.0751,100820.52
-1.0679,-0.0083,-0.2632,-52.622,6.463,-7.012,1.0999,100820.59
-1.1714,-0.0771,-0.4385,-46.28,-1.89,-9.024,1.2531,100821.24
-1.2148,-0.1318,-0.5054,-55.793,11.28,-12.988,1.3224,100821.74
-1.1572,-0.1177,-0.1992,-74.329,24.024,-18.841,1.1801,100822.49
-1.2236,-0.0879,0.2144,-88.415,12.134,-24.634,1.2454,100822.83
-1.0542,-0.1123,0.209,-102.988,21.646,-26.28,1.0806,100822.35
-0.9194,-0.166,0.1875,-94.512,-8.171,-32.195,0.9529,100821.09
-0.9351,-0.1597,0.0801,-110.427,-22.744,-28.232,0.952,100821.28
-0.9312,-0.0737,-0.1045,-121.89,-36.159,-24.39,0.9399,100821.18
-0.8735,-0.0186,-0.1689,-114.207,-36.524,-18.293,0.8899,100821.46
-0.8896,-0.0205,-0.1636,-97.195,-20.061,-10.305,0.9048,100821.91
-0.9111,-0.0366,-0.1616,-79.512,-5.488,-9.756,0.9261,100822.86
-0.9141,-0.0581,-0.2119,-67.561,-3.841,-3.78,0.9401,100822.23
-0.9268,-0.0879,-0.2656,-58.476,-5.732,4.573,0.9681,100822.73
-0.937,-0.104,-0.2339,-50.976,0.488,9.512,0.9713,100823.35
-1.0215,-0.0435,-0.2422,-48.415,2.195,14.695,1.0507,100822.24
-1.1812,-0.0396,-0.2451,-39.817,-1.585,22.5,1.207,100822.49
-1.2666,-0.0444,-0.4346,-24.085,5.183,28.232,1.3398,100823.08
-1.2529,-0.1099,-0.2959,-3.537,17.256,26.646,1.2921,100823.87
-1.1641,-0.1494,0.1162,-8.354,34.146,29.451,1.1794,100822.98
-1.167,-0.0601,0.3174,-33.537,39.512,29.512,1.2109,100823.54
-0.811,0.0239,0.2256,-52.866,19.085,10.0,0.8422,100822.62
-0.9097,-0.0044,0.0181,-66.89,-10.488,6.89,0.9099,100822.68
-1.125,-0.0371,-0.2197,-59.207,-16.585,1.951,1.1469,100823.09
-0.9893,-0.0571,-0.1572,-36.524,1.89,-8.11,1.0033,100822.05
-0.8408,-0.0537,-0.0752,-43.354,14.329,-16.22,0.8459,100821.5
-0.8335,0.0103,-0.0708,-63.659,10.183,-14.939,0.8366,100821.58
-0.8628,0.0918,-0.0708,-80.427,8.476,-9.695,0.8705,100821.41
-0.873,0.1465,-0.1128,-91.341,5.793,-11.037,0.8924,100821.64
-0.9277,0.1675,-0.2451,-90.549,0.488,-11.829,0.9741,100822.55
-1.0894,0.1025,-0.165,-68.902,10.427,1.768,1.1065,100822.83
-1.0962,0.0391,-0.2397,-68.598,9.756,3.902,1.1228,100822.48
-1.1094,-0.0088,-0.437,-58.415,-1.341,-3.354,1.1924,100822.66
-1.103,-0.0039,-0.5117,-44.085,5.427,-17.073,1.216,100823.08
-1.0615,0.0688,-0.1626,-42.134,24.634,-25.488,1.0761,100823.1
-1.1753,0.0762,0.1572,-56.829,26.037,-19.817,1.1882,100822.91
-1.1587,0.0278,0.0591,-66.037,35.976,-17.317,1.1605,100822.41
-1.1323,0.0225,0.0562,-51.829,52.317,-9.756,1.1339,100822.27
-1.1592,0.001,0.0859,-39.268,50.366,-8.78,1.1624,100821.55
-0.9277,0.0088,0.1304,-39.329,5.366,-20.61,0.9369,100821.4
-0.7632,0.0391,-0.02,-63.354,-9.756,-20.854,0.7644,100820.65
-0.6616,0.0708,-0.1152,-68.537,-40.671,-11.524,0.6753,100820.7
-0.6812,0.0796,-0.1484,-51.098,-66.463,-5.549,0.7017,100820.75
-0.8354,0.1187,-0.3979,-27.5,-55.549,-6.951,0.933,100820.92
-0.9409,0.0986,-0.3398,6.098,-23.354,0.793,1.0053,100821.17
-1.062,0.001,-0.2124,10.244,18.293,12.744,1.083,100821.34
-1.1528,0.0005,-0.2495,9.817,24.695,5.366,1.1795,100820.61
-1.1104,0.0063,-0.2305,17.561,20.183,-1.646,1.134,100821.04
-1.1338,0.022,-0.2739,21.707,20.366,2.744,1.1666,100821.51
-1.1479,0.0391,-0.4429,25.427,10.671,3.11,1.231,100822.94
-1.1108,0.0088,-0.377,31.037,3.171,7.927,1.1731,100823.65
-1.1372,-0.0264,0.1128,43.049,7.378,24.939,1.1431,100824.41
-1.0,0.0273,0.1631,30.732,30.793,27.988,1.0136,100824.01
-0.8374,0.1602,0.0757,11.951,12.439,8.963,0.8559,100823.73
-1.0996,0.0337,-0.2573,-7.439,-38.902,-4.39,1.1298,100822.31
-0.8545,0.0122,-0.3276,-13.841,-38.232,-10.305,0.9152,100822.18
-0.6851,-0.0107,-0.1489,-17.927,-3.841,-8.659,0.7011,100821.48
-0.6567,0.0425,-0.0957,-23.11,15.488,-9.512,0.665,100821.69
-0.8306,0.0889,-0.1318,-22.622,3.78,-11.829,0.8456,100821.73
-1.0146,0.1084,-0.1919,-26.463,-8.537,-12.683,1.0383,100821.87
-1.0581,0.0151,-0.2432,-36.159,-5.854,-8.476,1.0858,100822.1
-1.0591,-0.0376,-0.2603,-36.646,11.159,-2.256,1.0912,100821.89
-1.0742,0.041,-0.2959,-28.293,25.976,-4.024,1.115,100821.97
-1.1719,0.0669,-0.4189,-29.512,28.659,-9.085,1.2463,100822.16
-1.1865,0.043,-0.5,-34.817,28.354,-11.707,1.2883,100822.45
-1.269,0.0596,-0.1328,-29.39,25.549,-5.549,1.2774,100822.68
-1.1997,0.0518,0.2593,-36.098,26.037,-7.744,1.2285,100822.56
-0.978,-0.0239,0.1899,-55.732,22.927,-12.805,0.9966,100821.51
-1.0366,-0.0864,0.1401,-59.268,-7.927,-2.683,1.0496,100821.22
-0.9668,-0.0757,0.0757,-60.549,-42.439,-2.5,0.9727,100821.35
-0.832,-0.0215,-0.1016,-72.927,-53.72,-8.963,0.8385,100821.21
-0.7578,0.0522,-0.2012,-76.341,-40.671,-6.28,0.7858,100821.58
-0.7432,0.0586,-0.1558,-68.354,-15.549,1.22,0.7616,100821.51
-0.8276,0.0444,-0.147,-59.451,0.366,7.927,0.8418,100821.67
-0.9697,-0.0117,-0.1963,-47.805,1.341,12.134,0.9895,100822.29
-1.0259,-0.0576,-0.2983,-30.549,-3.232,10.854,1.0699,100822.41
-1.0713,-0.0459,-0.2681,-15.0,-0.915,7.927,1.1053,100822.62
-1.2295,0.1221,-0.3916,0.122,13.171,12.256,1.2961,100823.62
-1.2627,0.144,-0.2354,22.561,28.78,18.049,1.2925,100823.99
-1.2627,0.103,0.2837,39.573,32.073,21.829,1.2983,100823.91
-1.1714,0.1577,0.5298,50.122,10.732,13.415,1.2953,100822.87
-0.8516,0.2847,0.1938,23.476,-19.451,-4.573,0.9186,100822.93
-0.9814,0.2349,0.0337,2.073,-27.683,9.207,1.0097,100822.24
-0.9805,0.0874,-0.0791,17.866,-36.341,15.976,0.9875,100821.73
-0.6377,0.0068,-0.0889,25.915,-12.439,-13.293,0.6439,100822.31
-0.7612,0.0977,-0.0645,7.317,-12.134,-7.927,0.7702,100822.24
-0.9336,0.1958,-0.1543,-8.72,1.89,0.732,0.9663,100822.06
-1.0518,0.187,-0.228,-12.317,10.427,0.122,1.0923,100820.98
-1.0186,0.1064,-0.2378,-9.268,18.11,-6.159,1.0513,100821.49
-0.958,0.0234,-0.1689,-10.183,24.024,-11.768,0.9731,100822.01
-1.0405,-0.0005,-0.1416,-18.11,24.878,-10.61,1.0501,100821.4
-1.0894,0.082,-0.2998,-24.207,10.244,-13.354,1.1328,100821.31
-1.1738,0.1328,-0.4951,-32.439,9.268,-14.451,1.2809,100821.98
-1.186,0.1846,-0.3882,-38.72,22.805,-10.061,1.2615,100822.0
-1.2046,0.2217,0.0142,-35.183,29.024,-12.744,1.2249,100821.88
-1.0986,0.1543,0.2163,-38.049,31.463,-21.463,1.1303,100822.77
-0.958,0.0259,0.165,-39.634,24.268,-11.402,0.9725,100821.86
-1.0522,0.0264,0.1514,-23.659,-0.366,-4.634,1.0634,100821.55
-1.021,0.0181,-0.0283,-14.512,-16.646,-12.439,1.0215,100821.32
-0.9575,0.0615,-0.2109,-25.305,-26.463,-6.951,0.9824,100821.6
-0.8208,0.1182,-0.2251,-32.378,-10.183,1.646,0.8593,100820.87
-0.7646,0.0898,-0.1782,-10.0,-7.622,6.098,0.7903,100820.34
-0.8579,0.0278,-0.229,5.244,-7.744,4.695,0.8884,100820.19
-0.9326,-0.019,-0.2617,16.037,-3.659,5.793,0.9688,100820.41
-1.0239,0.0054,-0.3076,16.646,3.293,6.768,1.0691,100820.85
-1.1226,0.0356,-0.2329,16.707,6.524,6.585,1.147,100821.3
-1.1587,0.0581,-0.3237,21.524,4.329,7.744,1.2045,100822.0
-1.1328,0.0928,-0.4858,29.939,5.305,15.061,1.2361,100822.88
-1.2642,0.1084,-0.144,38.232,13.902,24.695,1.2769,100822.96
-1.2915,0.1191,0.1665,32.866,19.207,29.207,1.3076,100823.55
-0.9727,0.1577,0.0957,22.012,20.61,22.012,0.99,100823.2
-0.8608,0.2256,0.1187,18.963,-1.585,9.39,0.8978,100822.92
-0.9893,0.1841,0.0938,22.012,-20.854,0.122,1.0106,100822.37
-0.9663,0.104,-0.1118,36.585,-25.244,-2.012,0.9783,100821.7
-0.8833,0.0229,-0.209,44.695,-22.683,-4.817,0.908,100821.2
-0.7314,-0.0112,-0.186,38.293,-12.256,-9.085,0.7548,100821.16
-0.7236,0.0801,-0.2031,24.817,-7.561,-5.244,0.7559,100821.28
-0.8306,0.1826,-0.2378,12.5,-4.268,-1.22,0.883,100822.22
-0.918,0.189,-0.2842,6.707,2.805,-5.915,0.9794,100821.45
-0.9922,0.1357,-0.313,9.085,2.5,-8.232,1.0492,100821.72
-1.0361,0.0903,-0.2847,13.171,-1.22,-5.183,1.0783,100823.12
-1.0508,0.0684,-0.2285,10.366,-1.768,-3.902,1.0775,100823.09
-1.1299,0.0625,-0.4189,-2.073,3.293,-6.951,1.2067,100824.41
-1.1548,0.1455,-0.5684,-14.817,15.427,-5.854,1.2953,100823.79
-1.188,0.2412,-0.2974,-22.744,23.476,-4.634,1.2482,100823.73
-1.2114,0.2563,0.0762,-26.28,22.988,-8.049,1.2406,100824.28
-1.0415,0.1719,0.1465,-30.183,11.585,-10.061,1.0657,100823.8
-0.9565,0.082,0.0566,-26.28,18.476,-3.72,0.9617,100823.94
-1.0645,0.0332,0.0161,-13.476,10.671,-4.39,1.0651,100823.32
-1.0264,-0.0308,-0.0117,-3.841,-18.72,-7.622,1.0269,100823.43
-0.8711,0.0088,-0.1094,-7.622,-31.28,-0.854,0.878,100822.2
-0.7529,0.0796,-0.2568,-12.195,-29.085,9.39,0.7995,100822.59
-0.749,0.0791,-0.2578,-0.915,-15.61,12.683,0.7961,100823.12
-0.7964,0.0566,-0.2134,13.659,5.854,8.902,0.8264,100823.27
-0.8652,0.0015,-0.23,25.671,7.622,8.232,0.8953,100823.12
-0.9155,-0.0132,-0.2935,30.427,2.439,10.671,0.9615,100823.14
-0.9736,0.0044,-0.3042,27.866,7.012,10.671,1.0201,100823.61
-1.0767,0.0137,-0.1997,27.317,4.817,5.793,1.0951,100823.83
-1.1851,0.0083,-0.3306,22.378,-4.268,2.866,1.2303,100825.23
-1.2134,0.0625,-0.6255,13.902,-7.866,5.793,1.3665,100824.19
-1.2793,0.0239,-0.3208,19.207,7.5,17.439,1.3191,100824.29
-1.2432,0.0381,0.0342,15.671,36.098,26.524,1.2442,100823.86
-0.9434,0.1104,0.1333,4.695,34.695,20.671,0.9591,100823.56
-0.9619,0.1694,0.208,5.0,14.939,9.756,0.9986,100823.78
-1.0513,0.1694,0.1328,9.756,-2.622,4.024,1.0731,100823.63
-0.9805,0.0649,-0.0596,13.476,-34.146,1.829,0.9844,100823.24
-0.8633,-0.0615,-0.2617,11.829,-54.878,-11.341,0.9042,100823.83
-0.7729,-0.1138,-0.3115,0.61,-26.037,-19.146,0.8411,100824.37
-0.7583,-0.0591,-0.144,-26.159,10.427,-7.805,0.7741,100823.92
-0.8579,0.0542,-0.1055,-55.488,16.341,-2.622,0.8661,100823.45
-0.9429,0.1318,-0.1748,-65.488,6.341,-11.28,0.968,100824.44
-0.981,0.1304,-0.2764,-64.146,-0.732,-17.927,1.0274,100824.32
-0.998,0.0708,-0.3159,-58.902,0.122,-15.366,1.0492,100824.09
-1.0283,0.0205,-0.3047,-52.744,7.195,-7.561,1.0727,100824.87
-1.0996,-0.0015,-0.3379,-47.5,12.317,-4.451,1.1504,100825.73
-1.1343,-0.0293,-0.4131,-49.451,19.512,-8.11,1.2075,100825.37
-1.1094,-0.0625,-0.4429,-60.915,33.11,-16.524,1.1961,100825.24
-1.1343,-0.0171,-0.1562,-78.232,28.476,-21.524,1.1451,100825.27
-1.2866,-0.001,0.2856,-93.963,12.256,-15.61,1.3179,100824.7
-1.0752,-0.0391,0.3193,-96.646,13.72,-19.939,1.1223,100824.97
-1.1353,-0.0557,0.2441,-90.122,5.427,-14.634,1.1625,100825.2
-1.1094,-0.0146,0.1152,-96.646,-28.659,-22.927,1.1154,100825.48
-0.9165,-0.0112,-0.1299,-118.841,-49.085,-33.232,0.9257,100824.59
-0.813,-0.0229,-0.1357,-127.866,-34.817,-26.463,0.8246,100825.14
-0.73,0.022,-0.0591,-123.171,-15.183,-16.098,0.7327,100825.95
-0.7808,0.0562,-0.1094,-117.378,-3.415,-4.512,0.7904,100824.59
-0.9854,0.0044,-0.1616,-99.878,0.366,5.976,0.9985,100824.66
-1.083,-0.041,-0.25,-74.512,5.305,9.39,1.1122,100824.58
-1.0225,-0.0518,-0.3154,-51.341,15.732,8.659,1.0713,100825.13
-0.9844,-0.0586,-0.2437,-36.037,25.915,9.695,1.0158,100825.19
-1.0693,-0.0908,-0.1733,-29.268,26.829,14.085,1.0871,100825.23
-1.1523,-0.1431,-0.2651,-23.537,17.927,14.573,1.1911,100825.76
-1.1807,-0.2041,-0.3794,-16.951,13.598,5.366,1.2568,100825.15
-1.2842,-0.2539,0.0542,-22.927,13.354,-6.585,1.3102,100824.7
-1.2583,-0.1279,0.3315,-63.902,7.195,-17.561,1.3075,100824.84
-0.937,0.0664,0.2246,-104.451,7.012,-23.841,0.9658,100824.7
-0.8618,0.1206,0.1572,-123.659,-1.585,-12.561,0.8843,100825.44
-0.8857,0.105,0.0425,-126.89,-12.988,-7.622,0.893,100826.62
-0.873,0.022,-0.0347,-107.439,-6.585,-10.305,0.874,100825.52
-0.8423,-0.063,-0.02,-95.671,-6.341,-18.171,0.8449,100825.69
-0.9673,-0.0767,-0.0288,-105.549,-10.61,-14.573,0.9707,100824.98
-0.9849,0.0703,-0.0083,-143.78,9.634,-6.28,0.9874,100825.19
-0.8965,0.0991,-0.0903,-143.171,9.939,-11.524,0.9065,100824.82
-0.9453,0.1108,-0.2188,-131.829,5.671,-16.098,0.9766,100825.88
-1.0024,0.1357,-0.2827,-116.22,13.72,-6.463,1.0504,100825.69
-1.1089,0.1074,-0.2139,-96.037,22.5,4.207,1.1344,100826.55
-1.1108,0.0244,-0.2568,-74.39,17.866,-3.72,1.1404,100826.59
-1.1445,-0.0166,-0.3857,-52.561,18.476,-9.756,1.2079,100826.5
-1.1357,-0.0513,-0.3472,-45.549,30.61,-11.341,1.1887,100826.66
-1.3335,-0.1333,0.1997,-52.439,60.61,0.061,1.3549,100826.79
-1.1646,-0.1094,0.3677,-80.854,68.537,-5.61,1.2261,100826.77
-0.9526,-0.1606,0.124,-93.659,26.707,-16.037,0.974,100826.74
-1.0601,-0.1685,0.1421,-94.451,-12.012,-17.012,1.0827,100825.74
-0.9463,-0.0933,0.1113,-107.317,-42.744,-19.878,0.9574,100825.6
-0.8306,-0.0078,-0.1626,-119.146,-66.585,-20.915,0.8464,100825.35
-0.6997,0.042,-0.2227,-103.049,-57.256,-17.622,0.7355,100825.76
-0.8198,0.0293,-0.1094,-84.756,-8.11,-6.098,0.8276,100825.09
-0.9458,-0.0024,-0.1191,-76.951,8.537,-2.683,0.9533,100825.16
-1.0054,-0.0073,-0.1699,-65.061,6.463,2.744,1.0197,100825.08
-1.0181,-0.002,-0.2827,-51.585,3.171,6.402,1.0566,100825.43
-1.0176,-0.0132,-0.3501,-35.183,7.744,9.268,1.0762,100825.67
-1.1128,-0.0063,-0.3076,-18.78,19.695,14.573,1.1545,100825.59
-1.2622,-0.0225,-0.3228,-3.049,25.61,19.024,1.303,100826.02
-1.2686,-0.0659,-0.3428,10.854,25.0,18.476,1.3157,100825.76
-1.4316,-0.063,0.1875,18.537,49.878,26.89,1.4452,100825.79
-1.2124,0.0669,0.3774,-1.707,42.988,12.134,1.2716,100825.83
-0.853,0.1514,0.1172,-29.085,13.354,-11.646,0.8742,100826.2
-0.9189,0.0703,-0.022,-36.829,0.793,-5.61,0.9219,100825.65
-0.8267,0.02,-0.0415,-23.049,-7.378,2.073,0.8279,100825.71
-0.6929,0.0039,-0.1123,-12.012,-12.683,-4.573,0.7019,100826.04
-0.7197,0.0054,-0.0908,-12.927,-19.39,-14.634,0.7255,100825.53
-0.9258,0.0522,-0.1675,-26.524,-19.939,-12.012,0.9423,100826.0
-1.0156,0.1055,-0.189,-38.72,4.268,-7.012,1.0384,100826.23
-0.9868,0.146,-0.1973,-43.902,14.329,-6.159,1.0169,100826.27
-0.9248,0.1509,-0.2739,-38.415,13.232,-10.61,0.9762,100825.69
-0.9058,0.0801,-0.3022,-30.488,13.902,-13.963,0.9582,100825.73
-0.9624,0.0586,-0.2461,-29.878,8.659,-10.976,0.9951,100826.29
-1.0791,0.0923,-0.2529,-30.671,-0.183,-7.134,1.1122,100826.7
-1.1743,0.0889,-0.4697,-28.476,-3.293,-9.39,1.2679,100827.61
-1.231,0.1069,-0.4766,-22.256,5.122,-12.134,1.3243,100827.7
-1.3062,0.0942,-0.0273,-15.793,14.512,-9.695,1.3098,100827.51
-1.1567,0.0596,0.2065,-21.098,13.415,-14.634,1.1765,100827.61
-0.9385,-0.0366,0.1318,-19.695,21.89,-11.159,0.9484,100826.58
-1.0254,-0.0474,0.1265,-9.756,24.695,-2.134,1.0342,100826.05
-1.0181,-0.0078,0.0986,-7.378,-2.134,-2.805,1.0229,100826.65
-0.9209,0.0146,-0.002,-14.268,-35.61,-10.549,0.921,100826.47
-0.7954,0.0596,-0.1641,-22.073,-55.732,-10.0,0.8143,100825.97
-0.7183,0.0884,-0.3237,-18.72,-40.549,-2.134,0.7928,100825.45
-0.8354,0.0259,-0.2129,-3.293,-0.488,5.061,0.8625,100825.8
-0.874,-0.0332,-0.1357,0.427,16.037,6.89,0.8851,100826.06
-0.9277,-0.0532,-0.1714,-5.732,6.951,12.195,0.9449,100825.89
-1.0112,-0.0337,-0.2466,-7.256,-1.037,13.049,1.0414,100826.12
-1.0625,-0.0127,-0.2974,-0.305,0.061,6.28,1.1034,100826.3
-1.0942,-0.0137,-0.2715,8.72,3.232,0.244,1.1275,100826.45
-1.144,0.021,-0.3662,16.28,3.476,-0.244,1.2014,100826.14
-1.1274,0.062,-0.4463,28.171,12.988,3.11,1.2141,100825.83
-1.2666,0.0029,-0.0605,41.768,45.061,12.134,1.2681,100825.8
-1.2632,-0.0054,0.3271,44.268,34.512,7.5,1.3049,100823.86
-0.9619,0.1245,0.144,27.622,21.524,-3.476,0.9806,100822.28
-1.019,0.1304,0.1953,22.439,1.768,-5.0,1.0457,100821.94
-1.0312,0.0908,0.0747,9.39,-18.171,5.244,1.0379,100822.53
-0.9131,0.0356,-0.2471,-0.732,-39.329,10.732,0.9466,100824.91
-0.8423,0.0146,-0.4341,-1.402,-40.976,3.963,0.9477,100825.69
-0.8257,0.002,-0.1367,-4.146,1.768,4.939,0.8369,100826.87
-0.7549,0.0928,-0.0942,-10.793,13.78,-2.012,0.7664,100827.66
-0.7866,0.1401,-0.1582,-13.902,-6.829,-14.085,0.8145,100826.41
-0.8896,0.103,-0.2402,-13.232,-9.939,-15.732,0.9273,100825.73
-0.9844,0.0366,-0.311,-12.988,-0.305,-9.39,1.033,100824.73
-1.0747,0.0312,-0.2183,-10.488,9.939,-2.5,1.0971,100824.94
-1.1099,0.0322,-0.2891,-15.61,15.305,-2.317,1.1473,100826.7
-1.1582,0.04,-0.5361,-22.439,8.841,-4.573,1.2769,100827.98
-1.1826,0.1367,-0.5654,-23.659,10.854,-4.634,1.3179,100828.12
-1.1978,0.1514,-0.1333,-10.122,32.927,0.244,1.2146,100828.12
-1.3984,0.144,0.3354,22.927,53.049,3.78,1.4453,100827.74
-1.0811,0.0981,0.0918,20.488,25.488,-11.585,1.0894,100826.49
-0.9102,-0.0312,0.1519,18.049,9.634,-3.841,0.9233,100825.91
-0.8809,-0.0259,0.2124,5.732,-36.22,-3.232,0.9065,100826.6
-0.7837,0.0264,-0.2729,-17.439,-81.037,-13.232,0.8303,100826.71
-0.7749,0.0186,-0.3223,-15.549,-54.512,-1.829,0.8394,100826.46
-0.8672,-0.0186,-0.1875,-9.268,-11.951,13.354,0.8874,100826.39
-0.8623,0.0054,-0.1655,-3.841,7.683,12.073,0.8781,100825.86
-0.8867,-0.0176,-0.2256,-2.195,1.402,10.061,0.9151,100825.94
-0.9429,-0.0415,-0.2568,-0.549,-3.049,10.305,0.9781,100825.35
-0.9507,0.019,-0.2515,-1.341,-1.098,6.646,0.9836,100826.27
-0.9658,0.0835,-0.2485,-4.451,-4.085,7.195,1.0008,100826.23
-1.1235,0.0991,-0.2676,-0.671,-5.244,13.171,1.1592,100826.7
-1.2852,0.1138,-0.4839,11.951,-2.866,12.195,1.3779,100826.94
-1.3091,0.0947,-0.6519,31.951,16.402,13.72,1.4655,100826.75
-1.1548,0.061,-0.3037,38.232,39.878,24.756,1.1956,100826.95
-1.2119,0.0361,0.2314,36.28,50.0,46.585,1.2343,100826.88
-1.0142,0.1685,0.3989,36.951,45.732,34.451,1.1027,100826.7
-0.8794,0.2271,0.1426,25.671,25.305,9.756,0.9194,100826.34
-1.0308,0.1675,0.1626,24.085,0.0,5.244,1.0569,100825.93
-0.9243,0.1338,0.0791,13.049,-43.293,9.085,0.9373,100826.01
-0.8569,0.0586,-0.1196,3.537,-81.402,12.988,0.8672,100826.55
-0.8296,0.0098,-0.3818,10.61,-93.415,4.207,0.9133,100826.1
-0.8433,0.0439,-0.3779,23.598,-36.037,-2.134,0.9251,100827.21
-0.8037,0.0913,-0.0889,14.146,21.707,-5.793,0.8137,100826.94
-0.98,0.1963,-0.1626,-22.988,-12.134,-14.207,1.0126,100827.22
-1.0981,0.1807,-0.2837,-27.805,-6.341,-10.549,1.1485,100826.58
-1.1294,0.1792,-0.2861,-23.476,17.317,-8.902,1.1788,100826.47
-1.166,0.1973,-0.3779,-23.354,26.646,-8.232,1.2415,100826.63
-1.1348,0.2363,-0.5454,-24.939,27.561,-7.866,1.281,100826.51
-1.1309,0.2183,-0.4229,-22.683,31.707,-12.561,1.2269,100826.29
-1.2114,0.0791,0.1382,-16.89,25.854,-12.5,1.2218,100826.24
-1.1475,-0.0083,0.3271,-20.732,37.378,-1.707,1.1932,100826.22
-0.9712,-0.085,0.2222,-19.817,47.5,7.622,0.9999,100825.34
-1.0249,-0.1191,0.1963,-16.951,16.402,1.829,1.0503,100825.43
-1.0059,-0.1021,0.0767,-26.768,-24.878,-6.768,1.0139,100825.37
-0.9092,0.0015,-0.1323,-39.695,-65.305,-11.037,0.9188,100825.69
-0.7427,0.1089,-0.4155,-39.512,-71.951,-16.463,0.858,100825.65
-0.8105,0.0791,-0.2754,-20.671,-21.22,-9.39,0.8597,100825.88
-0.8018,0.0552,-0.1416,-16.402,16.707,-2.805,0.816,100825.94
-0.8252,0.0103,-0.2192,-15.915,11.22,8.232,0.8539,100825.98
-0.9629,0.0073,-0.2964,-6.829,6.098,13.415,1.0075,100826.39
-0.9795,0.0229,-0.3057,-2.378,13.293,7.073,1.0263,100825.95
-1.0303,-0.0088,-0.2153,-4.268,13.11,5.61,1.0526,100825.85
-1.2158,0.0122,-0.3579,-4.634,2.439,5.427,1.2675,100827.12
-1.3418,0.0781,-0.6719,3.841,3.049,4.146,1.5026,100827.08
-1.3223,0.0015,-0.3726,18.354,23.415,6.585,1.3737,100827.2
-1.0664,0.0054,0.4126,-17.378,32.805,17.622,1.1435,100826.83
-0.8853,0.1562,0.2661,-50.305,15.366,10.671,0.9375,100826.01
-1.041,0.0732,0.1235,-70.244,-21.341,9.573,1.0509,100826.12
-1.0728,-0.0156,-0.1362,-52.073,-38.78,8.232,1.0815,100825.85
-0.8662,-0.0396,-0.2583,-21.463,-22.561,-8.659,0.9048,100826.15
-0.6904,-0.0601,-0.1387,-22.927,-0.305,-24.39,0.7068,100826.96
-0.6567,0.0137,-0.0508,-49.634,11.159,-21.28,0.6588,100827.21
-0.7637,0.1294,-0.0698,-70.305,12.622,-13.049,0.7777,100826.41
-0.8975,0.1943,-0.1782,-75.183,6.402,-15.244,0.9354,100826.31
-1.0312,0.126,-0.3047,-65.061,-1.402,-13.902,1.0827,100825.09
-1.1187,0.002,-0.2773,-48.476,-4.512,-9.268,1.1525,100825.7
-1.1597,-0.0298,-0.2466,-41.646,5.976,-8.902,1.186,100825.63
-1.1587,0.0029,-0.2988,-42.988,13.11,-14.817,1.1966,100826.2
-1.1611,0.0347,-0.5146,-56.28,15.061,-18.171,1.2705,100826.38
-1.2446,0.0034,-0.3447,-70.305,31.951,-10.427,1.2915,100825.54
-1.21,-0.0088,0.1641,-81.951,31.098,-10.732,1.2211,100826.02
-1.1089,0.0078,0.3984,-101.524,23.72,-2.134,1.1783,100825.88
-1.0151,-0.0532,0.2793,-117.622,26.646,9.207,1.0542,100825.18
-1.0308,-0.0796,0.2495,-115.793,12.439,6.037,1.0635,100825.86
-0.9512,-0.0762,0.1221,-120.61,-31.22,-11.829,0.962,100825.87
-0.9097,-0.0361,-0.0483,-116.28,-69.756,-22.988,0.9117,100825.56
-0.7954,0.0747,-0.2861,-94.512,-54.512,-28.598,0.8486,100825.45
-0.8481,0.0825,-0.2002,-68.476,-9.573,-18.902,0.8753,100824.98
-0.8862,0.0664,-0.1133,-65.183,12.561,-8.72,0.8959,100825.84
-0.9907,0.0229,-0.2476,-58.598,11.463,16.098,1.0214,100827.07
-0.9795,-0.0278,-0.2397,-44.39,24.817,22.012,1.0088,100827.18
-1.022,-0.083,-0.0972,-37.073,31.098,24.939,1.0299,100826.62
-1.2065,-0.0176,-0.231,-37.134,21.951,23.11,1.2286,100826.84
-1.3179,0.0444,-0.5244,-25.0,14.512,13.659,1.4191,100826.01
-1.3389,-0.1074,-0.1011,-9.329,48.415,19.573,1.347,100826.0
-1.3032,-0.0894,0.2861,-27.256,60.793,22.439,1.3373,100826.34
-0.8838,0.0659,0.3428,-52.073,24.207,0.793,0.9502,100825.87
-0.8052,0.1201,0.2627,-70.0,12.5,-5.061,0.8554,100826.49
-1.0918,0.0903,0.042,-86.89,12.439,-2.561,1.0963,100825.74
-1.001,0.0679,-0.126,-74.817,-9.39,-9.573,1.0112,100826.76
-0.8325,0.0024,-0.1743,-64.451,-3.476,-13.659,0.8506,100826.05
-0.813,0.0063,-0.0767,-73.78,14.329,-13.476,0.8166,100827.48
-0.8477,0.0928,-0.022,-93.476,16.951,-10.915,0.853,100827.84
-0.9004,0.1519,-0.0708,-107.927,9.695,-11.098,0.9158,100827.24
-0.9404,0.1982,-0.1792,-107.5,10.427,-11.28,0.9777,100827.05
-0.9595,0.2041,-0.2759,-93.78,19.329,-7.744,1.019,100826.8
-1.0166,0.1431,-0.1758,-76.22,24.024,-5.061,1.0416,100827.19
-1.0728,0.0537,-0.1621,-69.451,21.646,-5.488,1.0863,100827.02
-1.1528,-0.0342,-0.4067,-65.122,16.341,-8.963,1.223,100827.0
-1.1914,-0.061,-0.5664,-57.073,20.793,-15.0,1.3206,100827.82
-1.1392,-0.0093,-0.4004,-60.61,37.317,-24.146,1.2075,100827.73
-1.1943,0.0649,0.0151,-73.963,28.598,-29.085,1.1962,100827.91
-1.2485,0.0791,0.3896,-98.171,9.39,-23.902,1.3103,100827.42
-1.0,-0.0005,0.1484,-105.0,17.439,-13.232,1.011,100826.77
-1.0342,0.0225,0.1006,-104.268,2.744,-20.183,1.0393,100826.42
-0.9102,0.0156,0.062,-115.793,-21.341,-26.098,0.9124,100826.57
-0.7485,0.0547,-0.1152,-121.524,-34.695,-22.561,0.7593,100826.8
-0.6851,0.0952,-0.1543,-112.256,-35.366,-15.122,0.7086,100826.59
-0.8018,0.0713,-0.1172,-99.756,-14.085,-5.854,0.8134,100827.16
-0.9487,0.0283,-0.1294,-87.622,5.061,-0.488,0.9579,100827.35
-1.0352,-0.0054,-0.1787,-78.415,7.805,4.39,1.0505,100827.37
-1.0488,0.002,-0.27,-68.659,4.878,8.415,1.083,100827.88
-1.1099,0.0776,-0.3247,-54.329,8.293,7.378,1.159,100827.17
-1.1772,0.0908,-0.2861,-35.854,20.976,9.817,1.2149,100827.99
-1.2539,0.0581,-0.2568,-14.695,34.207,13.537,1.2813,100827.48
-1.2134,0.002,0.0649,-4.878,35.427,13.902,1.2151,100827.82
-1.229,-0.0381,0.4263,-18.476,27.561,12.439,1.3014,100827.98
-0.9873,0.0737,0.2651,-42.866,29.085,-3.049,1.0249,100827.48
-1.1138,0.0015,0.2319,-59.573,18.232,-14.756,1.1377,100826.96
-1.1318,-0.0815,0.1392,-72.561,-4.817,-24.756,1.1433,100827.26
-0.9077,-0.0703,-0.1021,-75.366,-21.89,-26.707,0.9161,100827.02
-0.7549,-0.0117,-0.2012,-72.622,-34.451,-34.634,0.7813,100826.12
-0.7612,0.021,-0.123,-73.171,-14.512,-36.646,0.7714,100825.93
-0.8096,-0.0073,-0.0146,-80.976,20.976,-32.988,0.8097,100825.77
-0.8647,0.0356,-0.0845,-91.098,19.817,-36.098,0.8696,100825.65
-1.0361,0.1025,-0.1245,-94.878,6.159,-32.195,1.0486,100825.58
-1.0771,0.1465,-0.1743,-103.171,4.024,-27.317,1.101,100826.09
-1.1543,0.1265,-0.2998,-88.11,-1.646,-30.0,1.1993,100826.82
-1.2803,0.1763,-0.4736,-58.537,20.488,-22.012,1.3764,100827.62
-1.2158,0.1211,-0.2241,-39.39,30.61,-23.476,1.2422,100828.0
-1.1831,-0.0142,0.2754,-41.402,4.207,-14.573,1.2148,100827.41
-0.9346,-0.1089,0.2808,-46.463,14.939,-0.61,0.9819,100827.57
-0.709,-0.1538,0.0566,-34.085,12.134,16.707,0.7277,100826.86
-0.8657,-0.0508,0.0244,-4.817,-20.427,24.573,0.8676,100826.32
-1.0356,0.0166,-0.2363,19.512,-26.89,14.024,1.0624,100825.91
-0.9307,-0.0396,-0.2158,51.89,0.427,-0.122,0.9562,100826.21
-0.79,-0.0566,-0.0693,57.378,5.732,1.402,0.7951,100826.34
-0.8296,-0.0557,-0.0508,52.744,-7.927,9.085,0.833,100825.81
-0.9014,-0.0542,-0.0479,62.683,-10.671,9.024,0.9043,100825.41
-0.9609,-0.0459,-0.1025,66.585,-4.939,18.11,0.9675,100825.98
-0.9976,-0.0068,-0.2397,70.915,-3.537,26.037,1.026,100826.04
-1.1089,0.0654,-0.376,87.561,-6.159,22.378,1.1727,100826.3
-1.2261,0.1069,-0.2959,108.293,7.439,9.634,1.2658,100827.13
-1.1934,0.1118,-0.3218,110.915,23.963,1.768,1.241,100827.14
-1.187,0.1494,-0.1592,103.537,9.878,5.976,1.2069,100827.51
-1.4731,-0.0757,0.4604,102.012,0.488,24.512,1.5453,100827.76
-1.1626,-0.1099,0.6592,116.768,-66.707,-6.22,1.341,100827.48
-0.5308,-0.0869,0.3833,80.793,-38.415,-14.512,0.6604,100828.27
-0.9771,-0.103,-0.2144,41.707,56.646,38.537,1.0056,100827.73
-1.1611,-0.0576,-0.2373,87.561,21.829,29.329,1.1865,100828.2
-0.769,-0.0273,0.085,100.976,-24.39,1.22,0.7742,100827.67
-0.73,-0.0005,-0.0488,68.902,2.622,2.744,0.7316,100826.93
-0.6782,0.0337,-0.1138,49.146,2.988,2.683,0.6885,100826.97
-0.7852,0.0317,-0.1704,26.89,-2.622,0.427,0.8041,100827.02
-0.9365,0.0557,-0.2944,11.768,8.537,-0.244,0.9833,100827.55
-1.1016,0.0532,-0.293,9.451,11.159,2.866,1.1411,100827.8
-1.2471,0.0845,-0.2095,11.402,8.72,1.341,1.2674,100827.88
-1.1719,0.0898,-0.3359,7.073,21.463,-6.829,1.2224,100828.16
-1.127,-0.0332,-0.4058,8.354,15.0,3.537,1.1982,100827.79
-1.2104,-0.0234,-0.2964,16.829,-2.012,5.732,1.2464,100827.98
-1.3076,0.0654,0.1943,18.11,18.659,-6.646,1.3236,100828.11
-1.0342,0.063,0.2871,-4.512,41.463,-3.963,1.0751,100828.24
-0.811,0.0356,0.1216,-8.049,31.524,14.451,0.8209,100827.84
-1.0171,0.0107,0.1519,-3.415,9.329,20.122,1.0284,100827.75
-1.0,0.0029,0.0527,-12.073,-16.037,5.0,1.0014,100826.82
-0.9111,0.0229,-0.1362,-20.0,-42.195,3.232,0.9215,100826.16
-0.8428,0.0332,-0.2812,-21.707,-49.817,12.439,0.8891,100826.38
-0.7876,0.0117,-0.2476,-5.183,-25.061,12.439,0.8257,100826.53
-0.7646,-0.0029,-0.1484,11.524,6.463,4.939,0.7789,100826.91
-0.7988,0.0034,-0.1475,11.707,8.78,4.39,0.8123,100827.42
-0.9351,0.0278,-0.186,7.378,-2.683,11.463,0.9538,100828.18
-1.0845,0.0894,-0.2588,5.854,-13.476,10.366,1.1185,100828.15
-1.1284,0.125,-0.2744,11.402,-14.939,1.89,1.168,100827.97
-1.189,0.1709,-0.2837,17.195,-7.195,5.244,1.2342,100828.06
-1.25,0.2119,-0.4976,23.902,2.256,18.902,1.362,100827.91
-1.3008,0.1182,-0.2363,50.244,16.707,32.195,1.3273,100827.91
-1.3281,0.0352,0.2837,59.024,18.598,29.878,1.3585,100828.14
-0.9985,0.1245,0.3374,39.573,7.012,18.963,1.0613,100828.31
-0.8872,0.1895,0.1904,18.171,10.305,16.341,0.927,100827.81
-1.0107,0.0977,0.0693,15.671,-1.829,8.11,1.0178,100826.92
-0.9595,0.0366,-0.0703,32.195,-26.646,0.915,0.9627,100827.11
-0.8042,0.0269,-0.2036,42.012,-26.89,-1.22,0.83,100826.63
-0.71,0.0166,-0.2148,39.939,-8.293,-4.268,0.7419,100826.16
-0.7266,0.0488,-0.1626,25.854,1.22,-4.207,0.7461,100826.14
-0.7964,0.1138,-0.1616,6.768,5.793,-7.073,0.8205,100826.38
-0.8623,0.1597,-0.2104,-2.073,6.463,-13.902,0.9019,100826.05
-0.9956,0.1318,-0.2603,-6.098,3.902,-12.866,1.0375,100826.42
-1.0718,0.085,-0.2456,-7.256,2.866,-8.476,1.1028,100826.8
-1.0879,0.084,-0.2642,-14.573,8.841,-3.415,1.1226,100826.5
-1.1748,0.1538,-0.4438,-26.768,9.695,1.951,1.2652,100827.48
-1.2305,0.2847,-0.5229,-37.134,12.134,5.305,1.367,100827.85
-1.2441,0.2979,-0.1528,-40.366,17.805,12.317,1.2884,100827.92
-1.2788,0.1792,0.2715,-42.744,20.244,13.963,1.3195,100827.23
-0.9751,0.0342,0.2188,-40.732,30.671,19.695,0.9999,100827.21
-0.9014,-0.0073,0.2021,-31.89,22.805,30.61,0.9238,100827.08
-0.9941,0.0195,0.1499,-35.122,2.256,20.915,1.0056,100826.34
-0.9331,0.0786,-0.0303,-35.366,-24.817,7.561,0.9369,100825.96
-0.8325,0.165,-0.25,-22.622,-50.183,-2.683,0.8848,100826.02
-0.8232,0.2197,-0.3164,3.72,-37.561,-5.671,0.9089,100825.82
-0.8306,0.1348,-0.1753,22.5,6.951,-7.439,0.8595,100825.9
-0.7959,0.0469,-0.1299,17.134,13.415,-4.024,0.8078,100826.09
-1.0044,0.0801,-0.3022,11.341,20.183,14.146,1.0519,100826.24
-1.1714,0.1182,-0.2441,0.183,19.268,12.927,1.2024,100826.23
-1.2832,0.1519,-0.5005,-16.768,9.512,7.744,1.3857,100827.31
-1.2124,0.1348,-0.6055,-5.366,11.89,7.622,1.3619,100827.38
-1.2275,0.0835,0.019,16.768,27.988,17.439,1.2305,100827.57
-1.2363,0.0918,0.396,-1.524,40.793,17.866,1.3014,100827.23
-0.9087,0.1533,0.1157,-31.585,30.732,-2.866,0.9288,100827.24
-0.9541,0.1294,0.1162,-41.951,12.439,-6.768,0.9698,100827.48
-1.0859,0.019,0.0166,-49.939,1.402,-9.329,1.0862,100826.81
-0.8794,-0.04,-0.1816,-42.866,-32.622,-23.354,0.8988,100827.27
-0.7544,-0.0142,-0.2417,-46.707,-27.988,-26.22,0.7923,100827.38
-0.8228,0.0698,-0.1611,-63.049,8.232,-20.732,0.8413,100827.45
-0.8022,0.1626,-0.0791,-84.939,24.878,-21.159,0.8224,100827.48
-0.7798,0.1963,-0.0786,-97.988,16.098,-21.28,0.8079,100827.16
-0.9683,0.2046,-0.2114,-101.829,7.134,-15.976,1.012,100827.17
-1.1328,0.1621,-0.4194,-91.89,5.0,-13.049,1.2188,100827.66
-1.2583,0.083,-0.5068,-69.573,29.817,-11.524,1.3591,100827.91
-1.2134,-0.0244,-0.4902,-64.329,56.585,-13.171,1.3089,100828.32
-1.085,-0.083,-0.4785,-80.366,59.756,-17.622,1.1887,100827.8
-1.1548,-0.0337,-0.1714,-89.756,54.146,-16.463,1.1679,100827.28
-1.3452,0.0688,0.415,-96.22,49.878,-21.585,1.4095,100827.88
-0.8999,0.0005,0.1816,-105.732,-6.037,-35.183,0.9181,100827.47
-0.9868,0.063,0.1709,-111.098,-48.537,-34.146,1.0035,100827.15
-0.8799,0.1182,-0.3647,-127.805,-64.512,-21.28,0.9598,100826.94
-0.8018,0.0947,-0.1182,-99.085,-5.122,-10.488,0.8159,100826.38
-0.7979,0.0845,-0.0723,-93.72,6.22,-6.341,0.8056,100826.96
-0.8545,0.0615,-0.1821,-86.22,3.354,-2.5,0.8758,100826.4
-0.9531,0.0659,-0.2559,-69.451,9.695,2.5,0.9891,100826.95
-1.0327,0.064,-0.3086,-54.451,19.329,9.573,1.0797,100827.25
-1.1167,0.0181,-0.2256,-43.78,20.854,15.488,1.1394,100827.52
-1.2988,-0.0229,-0.2842,-35.671,13.902,19.634,1.3298,100828.16
-1.3521,0.0552,-0.5146,-17.988,25.061,12.683,1.4477,100828.27
-1.1797,-0.0005,-0.0444,-7.561,42.378,9.207,1.1805,100828.73
-1.1455,-0.041,0.4561,-31.159,34.39,18.476,1.2336,100828.36
-1.0791,0.0967,0.4414,-53.415,21.829,11.707,1.1699,100828.32
-0.9141,0.0957,0.1265,-73.72,36.098,-3.72,0.9277,100828.55
-1.0337,-0.0234,-0.0552,-80.122,26.037,-11.768,1.0354,100828.98
-1.0098,0.0215,-0.0918,-64.39,-14.939,-15.427,1.0142,100827.2
-0.8267,0.0259,-0.1089,-45.976,-4.39,-21.341,0.8342,100827.09
-0.8286,0.0386,-0.1118,-48.293,15.915,-24.085,0.837,100827.73
-0.8506,0.1094,-0.0781,-65.122,13.78,-19.634,0.8611,100827.21
-0.876,0.145,-0.0317,-87.378,11.585,-10.0,0.8885,100827.98
-0.8979,0.1807,-0.1167,-100.488,12.378,-4.634,0.9233,100828.41
-0.9282,0.208,-0.2695,-94.024,14.573,-5.854,0.9887,100828.72
-1.0215,0.082,-0.3188,-75.427,14.573,-5.183,1.0732,100829.67
-1.1802,-0.0479,-0.3149,-63.11,13.72,-1.829,1.2224,100830.02
-1.2188,-0.0654,-0.3901,-64.939,37.683,-1.463,1.2813,100830.41
-1.106,-0.0591,-0.5244,-72.012,39.451,-17.988,1.2254,100829.86
-1.1782,0.0415,-0.2817,-75.0,27.927,-35.427,1.2121,100829.68
-1.3657,0.0562,0.3745,-77.683,42.378,-31.402,1.4173,100829.05
-0.9639,0.0469,0.3076,-91.402,54.817,-36.341,1.0129,100828.48
-1.063,0.0181,0.1245,-84.39,47.317,-13.963,1.0704,100828.39
-1.123,0.0767,0.1499,-88.232,16.22,-17.744,1.1356,100827.84
-0.8896,0.0498,0.0884,-109.817,-29.573,-28.476,0.8954,100827.53
-0.751,0.0918,-0.1006,-121.341,-57.988,-23.963,0.7632,100827.82
-0.6968,0.1406,-0.1963,-112.683,-73.232,-17.988,0.7374,100827.74
-0.7754,0.1147,-0.2676,-94.756,-48.598,-9.512,0.8282,100827.95
-0.9453,0.0635,-0.2354,-71.585,2.378,-1.098,0.9762,100827.62
-0.9727,0.0605,-0.189,-58.049,23.963,3.354,0.9927,100827.7
-0.9902,0.085,-0.2881,-53.659,12.683,11.098,1.0348,100827.77
-1.0542,0.0679,-0.2798,-39.695,7.622,13.598,1.0928,100828.33
-1.1724,0.0654,-0.2456,-20.671,15.549,13.598,1.1996,100828.5
-1.1904,0.1157,-0.4155,-9.146,16.768,10.0,1.2662,100829.12
-1.2075,0.0527,-0.2754,4.756,19.573,11.524,1.2396,100828.73
-1.3174,-0.0098,0.3057,0.793,30.854,27.073,1.3524,100829.5
-1.1392,0.0923,0.2764,-26.646,45.671,28.598,1.1758,100829.12
-1.0244,0.1479,0.1099,-38.354,34.939,7.317,1.0409,100829.34
-1.0449,0.0967,0.1172,-36.89,6.037,-7.5,1.0559,100829.34
-0.9023,0.0547,0.0322,-22.683,-22.622,-4.756,0.9046,100828.27
-0.7603,0.0786,-0.1089,-8.659,-37.5,-10.915,0.772,100828.19
-0.75,0.0811,-0.1982,-10.366,-32.683,-23.537,0.78,100827.66
-0.8223,0.0864,-0.2017,-22.317,-7.317,-16.646,0.851,100827.1
-0.8765,0.1504,-0.0913,-38.354,17.256,-2.012,0.8939,100827.44
-0.8989,0.1904,-0.0762,-50.671,19.207,-3.476,0.922,100827.53
-0.9307,0.2124,-0.2158,-51.341,7.439,-9.085,0.9787,100827.88
-1.0098,0.1973,-0.3457,-42.073,-0.305,-9.024,1.0854,100828.62
-1.0762,0.166,-0.2544,-27.439,4.268,-4.634,1.1182,100828.8
-1.1021,0.1313,-0.25,-16.89,11.098,-3.11,1.1377,100828.59
-1.1382,0.0952,-0.5356,-7.805,15.122,-7.988,1.2615,100828.77
-1.2632,0.127,-0.4307,8.72,27.622,-12.317,1.3406,100829.16
-1.3135,0.1738,0.062,16.341,44.451,-19.085,1.3264,100828.95
-1.1641,0.1152,0.374,11.646,47.195,-23.537,1.2281,100828.55
-0.895,0.0781,0.1465,10.854,24.024,-24.512,0.9103,100828.36
-0.9243,0.0508,0.1426,19.146,10.427,-13.659,0.9366,100827.98
-0.9561,0.1094,0.1499,1.951,-19.878,-13.11,0.9739,100828.17
-0.8525,0.126,0.0088,-29.939,-55.671,-13.049,0.8618,100827.6
-0.7563,0.1484,-0.2603,-53.354,-78.598,0.122,0.8135,100827.88
-0.9058,0.1074,-0.479,-41.585,-58.659,15.488,1.0302,100827.47
-0.9463,-0.021,-0.2412,-12.622,13.841,8.232,0.9768,100827.8
-0.8145,-0.0244,-0.1299,-7.805,35.183,0.976,0.8251,100828.42
-0.8726,-0.0225,-0.1826,-13.78,10.427,8.598,0.8917,100827.91
-0.979,0.0137,-0.2129,-10.061,-1.341,7.378,1.002,100828.02
-1.0464,0.0591,-0.1973,3.293,2.317,0.854,1.0665,100828.21
-1.1729,0.1045,-0.2617,11.098,-1.098,-2.805,1.2062,100828.75
-1.2207,0.1406,-0.5444,15.915,4.573,-0.61,1.344,100829.17
-1.3047,0.0977,-0.2227,28.476,31.098,11.524,1.3271,100829.59
-1.4019,0.0273,0.2036,21.098,36.037,16.768,1.4168,100828.55
-0.9214,0.1343,0.2173,7.561,19.39,7.317,0.9561,100828.26
-0.8916,0.2373,0.188,2.195,7.195,17.622,0.9416,100827.89
-1.0459,0.2471,0.1685,9.634,-20.915,25.305,1.0878,100828.5
-0.9678,0.2363,-0.1201,25.244,-47.378,15.671,1.0034,100828.61
-0.8608,0.1074,-0.3169,37.866,-33.476,-5.61,0.9236,100828.79
-0.7246,-0.0093,-0.1816,31.341,-5.0,-15.183,0.7471,100827.59
-0.6294,0.0283,-0.0981,11.646,-1.829,-8.902,0.6376,100827.17
-0.6812,0.1455,-0.1348,-3.354,0.244,-2.195,0.7094,100827.54
-0.8638,0.231,-0.2222,-8.11,5.305,-5.793,0.9213,100827.73
-0.9858,0.2295,-0.313,-6.585,10.61,-12.195,1.0595,100826.53
-1.0562,0.1323,-0.2456,-3.049,4.146,-10.61,1.0924,100827.09
-1.1323,0.1191,-0.2329,-2.683,-9.268,-1.89,1.1622,100827.64
-1.2148,0.1821,-0.4756,-8.11,-7.866,2.988,1.3173,100828.28
-1.2461,0.1968,-0.603,-11.951,11.463,0.61,1.3983,100827.91
-1.2549,0.2168,-0.1724,-5.427,27.378,-4.024,1.2851,100828.49
-1.2026,0.1943,0.4126,-5.732,23.963,-13.415,1.2862,100828.2
-1.0376,0.0635,0.2651,-26.159,11.341,-14.939,1.0728,100828.12
-0.9912,0.0024,0.0977,-17.744,16.341,-2.744,0.996,100828.03
-1.0288,0.0225,0.1187,-5.0,-9.39,1.463,1.0359,100827.61
-0.9727,0.042,-0.0786,-12.561,-40.0,2.317,0.9767,100827.4
-0.7266,0.1377,-0.2222,1.829,8.415,-0.671,0.7721,100828.11
-0.7222,0.0439,-0.0928,11.037,10.61,-5.549,0.7294,100828.62
-0.7437,-0.0532,-0.1289,8.659,-2.134,-2.073,0.7566,100828.52
-0.856,-0.0054,-0.21,14.39,-3.78,9.024,0.8813,100827.98
-1.0029,0.0825,-0.3276,19.146,-0.549,10.122,1.0583,100828.04
-1.1035,0.0693,-0.2598,27.805,2.744,4.695,1.1358,100827.6
-1.1836,0.0859,-0.2998,28.598,2.988,3.049,1.224,100828.62
-1.249,0.1504,-0.5928,19.024,1.341,6.402,1.3907,100828.77
-1.2378,0.1455,-0.4531,29.024,19.573,10.427,1.3261,100828.99
-1.2417,0.0718,0.2266,40.671,34.207,14.634,1.2642,100829.05
-1.1631,0.1382,0.3325,23.841,32.317,24.817,1.2176,100828.73
-0.9927,0.2612,0.1689,5.915,13.415,18.902,1.0403,100828.5
-1.04,0.1929,0.1621,0.244,-21.159,5.244,1.0701,100828.05
-0.9834,0.0942,-0.042,6.098,-50.488,5.0,0.9888,100827.96
-0.7891,0.0186,-0.2451,28.963,-64.207,0.549,0.8265,100827.56
-0.6465,-0.0039,-0.2422,46.951,-43.232,-12.439,0.6904,100827.74
-0.6685,0.0327,-0.165,39.207,-12.5,-14.085,0.6893,100827.88
-0.79,0.144,-0.1362,13.11,0.671,-7.866,0.8145,100827.71
-0.9326,0.2358,-0.21,-7.317,-1.707,-10.549,0.9846,100828.46
-1.0488,0.2197,-0.355,-10.732,0.976,-13.841,1.1289,100828.39
-1.0508,0.1108,-0.334,-4.39,14.39,-7.866,1.1081,100828.34
-1.0381,0.0708,-0.1963,-3.72,21.037,0.671,1.0589,100829.02
-1.1484,0.0752,-0.3364,-13.171,13.902,2.683,1.1991,100827.7
-1.2363,0.1255,-0.5645,-21.463,17.012,-0.732,1.3649,100828.91
-1.2827,0.1982,-0.1567,-21.89,21.463,-1.098,1.3074,100829.45
-1.2607,0.1992,0.2925,-22.134,10.244,-5.183,1.3095,100829.76
-1.123,0.0693,0.2627,-17.866,27.439,-6.829,1.1554,100828.51
-1.0112,-0.0156,0.1963,-6.037,26.89,-3.476,1.0302,100828.17
-0.9268,-0.0005,0.1294,-12.317,-7.378,-0.61,0.9357,100828.05
-0.8701,0.0566,0.0078,-31.098,-46.22,-0.061,0.872,100828.07
-0.7764,0.1289,-0.3457,-9.695,-25.061,1.89,0.8596,100828.1
-0.7783,0.0776,-0.1704,12.073,11.28,4.146,0.8005,100828.23
-0.7856,0.0337,-0.1357,14.573,8.598,12.866,0.798,100827.49
-0.8877,-0.0049,-0.1953,13.415,1.098,25.488,0.9089,100827.53
-0.9941,-0.0039,-0.3296,14.634,7.561,23.049,1.0474,100828.79
-1.0771,0.0278,-0.249,21.951,13.415,11.098,1.1059,100827.77
-1.1836,0.0757,-0.2139,21.768,10.671,6.524,1.2051,100828.34
-1.2554,0.1616,-0.5117,20.0,4.085,8.232,1.3653,100828.63
-1.2188,0.1504,-0.4766,33.72,21.037,9.756,1.3172,100828.26
-1.3003,0.0786,0.1279,40.061,37.5,21.037,1.3089,100829.22
-1.0781,0.1543,0.2622,27.866,35.122,18.171,1.1202,100828.96
-0.9019,0.2461,0.1855,15.488,26.28,10.122,0.9531,100828.04
-1.1138,0.2007,0.1621,7.378,-5.976,10.61,1.1433,100827.21
-1.0581,0.0967,-0.0518,10.549,-47.622,6.646,1.0638,100827.05
-0.8638,-0.0151,-0.3066,20.305,-57.195,-5.244,0.9167,100827.82
-0.6997,-0.0532,-0.3062,17.927,-20.915,-17.378,0.7656,100827.91
-0.6602,0.0239,-0.1382,-5.183,6.768,-14.268,0.6749,100827.12
-0.7563,0.1484,-0.0962,-32.195,4.695,-5.183,0.7768,100827.86
-0.9419,0.1973,-0.2061,-46.707,-0.061,-1.585,0.9841,100828.41
-1.0464,0.1421,-0.3442,-45.915,8.171,-0.671,1.1107,100829.17
-0.9946,0.0581,-0.3052,-37.378,19.634,-5.061,1.042,100829.38
-0.9526,0.082,-0.2695,-33.171,17.378,-12.134,0.9934,100830.04
-1.0747,0.1465,-0.3237,-31.524,8.537,-13.476,1.1319,100830.64
-1.1289,0.1548,-0.4673,-34.268,5.61,-8.659,1.2316,100830.59
-1.1523,0.145,-0.5454,-39.939,21.707,0.061,1.2831,100830.45
-1.0503,0.1045,-0.2734,-41.89,32.744,-9.451,1.0903,100830.46
-1.0674,0.0859,0.1094,-47.866,32.5,-9.207,1.0764,100829.64
-1.1602,0.0078,0.3652,-51.646,37.012,-9.268,1.2163,100828.76
-1.0723,-0.061,0.2681,-55.0,-16.28,-33.049,1.107,100828.97
-1.1074,-0.0415,0.168,-54.268,-40.732,-39.512,1.1209,100829.12
-1.1245,0.022,0.0918,-68.537,-54.573,-20.915,1.1285,100828.86
-0.9282,0.0972,-0.4448,-100.0,-44.39,-7.744,1.0339,100828.3
-0.75,0.1152,-0.2588,-74.146,-14.268,-5.183,0.8017,100828.52
-0.689,0.1167,-0.1221,-58.415,1.707,-4.085,0.7094,100828.64
-0.8228,0.063,-0.2002,-56.89,-1.037,5.793,0.8491,100828.28
-0.9375,-0.0254,-0.2061,-48.11,-4.634,17.5,0.9602,100828.61
-0.9751,-0.0547,-0.3008,-36.341,5.793,22.439,1.0219,100828.23
-1.0264,-0.0967,-0.2915,-18.232,20.0,19.085,1.0713,100828.32
-1.1567,-0.106,-0.1772,-6.463,26.951,13.659,1.175,100828.37
-1.2466,0.0146,-0.2993,-13.72,19.024,9.085,1.2821,100828.77
-1.2827,0.0215,-0.2847,-25.854,9.817,8.902,1.3141,100828.73
-1.397,-0.04,0.1631,-32.744,27.012,14.573,1.407,100829.2
-1.2031,0.0239,0.2349,-55.976,43.78,7.805,1.2261,100828.81
-0.7759,0.0952,0.1143,-75.244,30.427,-15.427,0.79,100829.61
-0.8081,0.0615,0.145,-85.122,5.732,-19.695,0.8233,100829.12
-1.0034,0.0273,0.126,-88.049,-1.22,-10.061,1.0117,100828.74
-0.9722,0.0366,-0.0303,-82.866,-1.524,-12.317,0.9733,100828.09
-0.9097,0.0386,-0.0942,-79.512,-7.012,-22.439,0.9153,100828.36
-0.9497,0.0591,-0.0571,-93.537,0.122,-19.573,0.9533,100828.27
-1.0249,0.103,0.0254,-120.305,24.756,-10.793,1.0304,100827.64
-0.9751,0.1348,0.0625,-140.122,26.402,-15.671,0.9863,100827.16
-0.9033,0.1597,0.0054,-149.451,3.659,-18.049,0.9173,100827.27
-0.9473,0.1733,-0.1045,-150.366,-7.256,-10.0,0.9686,100827.59
-1.0059,0.1733,-0.2222,-133.902,2.134,-2.317,1.0446,100828.46
-1.0459,0.1304,-0.2266,-103.659,24.268,-3.049,1.0781,100828.24
-1.0674,0.0703,-0.248,-80.915,39.085,-9.756,1.0981,100829.53
-1.0298,0.0303,-0.3413,-73.537,51.037,-14.817,1.0853,100829.05
-1.0039,0.0146,-0.397,-76.463,64.817,-20.671,1.0796,100828.56
-1.1895,-0.0474,-0.0317,-77.988,59.695,-19.451,1.1908,100828.34
-1.377,-0.0562,0.3604,-90.793,62.256,-17.195,1.4244,100827.91
-1.1509,-0.0635,0.1587,-112.195,53.354,-29.085,1.1635,100827.84
-1.0088,-0.125,0.0981,-114.756,0.305,-41.646,1.0212,100827.4
-0.8071,-0.1416,0.0615,-120.061,-33.293,-44.756,0.8218,100827.98
-0.7744,-0.061,0.0205,-132.988,-39.756,-35.549,0.7771,100827.66
-0.8164,0.0254,-0.1172,-148.293,-44.207,-32.073,0.8252,100827.16
-1.0693,-0.0278,-0.127,-133.963,-11.829,-9.573,1.0772,100828.12
-1.0288,-0.0176,-0.1616,-118.232,7.134,-3.476,1.0416,100828.35
-0.9761,-0.02,-0.1895,-105.305,5.305,-2.683,0.9945,100827.56
-0.938,-0.0581,-0.2671,-94.756,1.037,-3.72,0.977,100828.2
-1.02,-0.0757,-0.3745,-79.939,4.939,-1.951,1.0892,100827.55
-1.1411,-0.0376,-0.3262,-62.195,17.439,2.134,1.1874,100827.8
-1.1504,0.0498,-0.3496,-53.293,25.183,8.049,1.2034,100827.76
-1.1724,0.0742,-0.354,-34.634,20.0,16.28,1.2269,100828.45
-1.2256,0.0176,0.1528,-10.366,36.524,27.561,1.2352,100828.22
-1.1025,0.0942,0.2866,-19.39,59.39,29.817,1.1431,100828.56
-0.8716,0.1641,0.1489,-31.646,33.415,7.988,0.8993,100829.05
-0.9492,0.0933,0.0806,-35.671,-6.28,-1.707,0.9572,100828.45
-1.0039,0.1157,0.0342,-39.451,-26.037,1.646,1.0111,100828.48
-0.9224,0.1797,-0.1465,-44.024,-32.195,-0.183,0.9511,100827.92
-0.8853,0.1792,-0.2427,-43.902,-22.927,-2.317,0.9352,100827.38
-0.8975,0.1523,-0.1895,-55.183,3.354,6.585,0.9298,100827.84
-0.832,0.1938,-0.1406,-66.585,20.183,7.683,0.8658,100827.55
-0.835,0.2139,-0.2085,-65.732,10.854,-1.22,0.8868,100828.09
-0.9097,0.1895,-0.3096,-51.037,7.744,-9.573,0.9794,100828.71
-0.939,0.1787,-0.3042,-30.0,21.402,-16.037,1.0031,100828.72
-0.9346,0.2021,-0.0957,-17.988,25.671,-17.866,0.961,100828.22
-0.978,0.2446,-0.1504,-20.793,17.5,-14.512,1.0193,100828.7
-1.1382,0.1538,-0.5474,-15.427,9.695,-5.976,1.2723,100829.45
-1.1934,0.1626,-0.5732,3.841,26.829,-3.171,1.3338,100829.39
-1.145,0.2407,-0.1978,12.805,29.573,-21.89,1.1866,100829.45
-1.3042,0.2188,0.21,3.293,6.768,-19.939,1.339,100829.98
-1.2954,0.1597,0.0615,-19.085,28.537,-6.646,1.3067,100830.03
-0.8662,0.0674,0.082,-2.256,50.183,-8.72,0.8727,100829.09
-0.9062,0.0024,0.1797,22.683,-3.963,-8.841,0.9239,100829.26
-0.9072,0.0322,-0.0459,7.561,-42.622,-17.683,0.909,100828.75
-0.8364,0.0488,-0.2441,-10.915,-52.622,-12.622,0.8727,100828.62
-0.8193,0.0605,-0.2861,-13.963,-31.951,1.402,0.87,100828.52
-0.814,0.0459,-0.2603,-6.037,0.305,6.341,0.8558,100829.3
-0.8696,0.0122,-0.1978,1.951,15.0,7.439,0.8919,100829.04
-0.9019,-0.0347,-0.1958,1.768,10.122,10.061,0.9235,100829.19
-0.896,-0.0059,-0.2222,0.122,6.098,11.159,0.9231,100828.73
-0.9102,0.0513,-0.2554,-1.098,-0.549,4.756,0.9467,100829.55
-1.0039,0.0537,-0.2178,-0.305,-4.939,0.854,1.0287,100829.58
-1.0596,0.042,-0.2388,1.829,-2.744,4.939,1.087,100829.34
-1.1602,0.146,-0.4663,7.012,-19.268,4.695,1.2589,100829.9
-1.2266,0.1733,-0.6904,31.402,-16.829,-1.098,1.4182,100830.42
-1.0986,0.0317,-0.4077,65.61,24.878,2.378,1.1723,100829.84
-1.1758,-0.0063,0.1758,66.159,34.573,20.488,1.1889,100829.8
-1.2192,0.0615,0.4126,46.524,27.561,20.671,1.2886,100829.88
-1.0283,0.1465,0.1479,27.561,17.927,-3.171,1.0492,100829.8
-1.0312,0.1792,0.0073,16.037,-9.512,-7.988,1.0467,100829.04
-0.9922,0.2144,-0.1963,4.817,-35.122,0.671,1.0339,100829.58
-0.8813,0.2104,-0.3657,4.817,-31.646,2.256,0.9771,100829.73
-0.7554,0.0933,-0.1846,17.378,4.817,1.463,0.7832,100829.84
-0.7075,0.0688,-0.1084,16.89,6.341,8.293,0.7191,100829.79
-0.7729,0.1152,-0.0898,8.902,-6.159,5.732,0.7866,100829.11
-0.8735,0.1558,-0.1377,-5.915,-19.207,-7.744,0.8979,100829.07
-0.9014,0.1846,-0.3164,-21.89,-19.817,-11.402,0.973,100828.47
-1.0137,0.1562,-0.356,-23.902,-1.28,1.22,1.0857,100829.23
-1.0303,0.1631,-0.2803,-18.171,15.915,5.366,1.0801,100829.56
-1.0244,0.1753,-0.2822,-20.366,16.037,0.549,1.0769,100829.19
-1.1162,0.1904,-0.4546,-21.585,1.037,-0.671,1.2202,100829.87
-1.1172,0.2251,-0.6006,-17.5,4.939,-5.915,1.2882,100829.66
-1.0215,0.2627,-0.3657,-9.878,17.195,-13.963,1.1163,100829.75
-1.1587,0.2402,0.1836,2.134,22.866,-6.402,1.1975,100829.58
-1.3374,0.1553,0.2451,-2.927,37.256,8.963,1.3685,100828.62
-1.062,0.0415,0.0449,-3.232,38.72,22.5,1.0638,100828.71
-1.0571,0.0703,0.1567,20.0,3.78,28.902,1.071,100828.55
-0.959,0.1133,-0.0684,20.793,-40.0,9.634,0.9681,100828.21
-0.7959,0.1094,-0.2285,18.659,-58.171,-4.512,0.8352,100828.19
-0.7134,0.1138,-0.3066,30.732,-41.159,-4.573,0.7848,100827.31
-0.7607,0.0776,-0.1816,52.927,-1.098,0.427,0.786,100828.37
-0.8047,0.0308,-0.1328,54.512,1.707,7.988,0.8162,100828.71
-0.874,0.0107,-0.188,43.354,-14.024,15.244,0.8941,100828.45
-1.0122,0.0571,-0.269,36.28,-17.073,15.0,1.0489,100828.73
-1.0298,0.1479,-0.3267,31.28,-6.951,5.305,1.0904,100829.2
-1.0381,0.167,-0.2759,26.829,-0.61,6.524,1.087,100830.16
-1.0815,0.1812,-0.3174,25.854,0.671,14.939,1.1416,100829.9
-1.106,0.2021,-0.4229,26.341,3.963,20.915,1.2012,100830.3
-1.0215,0.1768,-0.5464,30.122,25.061,23.963,1.1718,100830.05
-1.1147,0.1152,-0.3091,37.256,52.744,32.622,1.1625,100828.97
-1.48,0.1333,0.3179,40.793,49.146,46.524,1.5196,100828.88
-1.2002,0.2349,0.2705,22.683,5.122,27.866,1.2525,100829.07
-0.7729,0.2793,-0.1045,8.476,-2.073,5.488,0.8285,100829.45
-0.917,0.1855,-0.0283,6.098,-12.195,10.366,0.936,100829.35
-0.8926,0.0869,-0.0532,10.061,-43.841,7.317,0.8984,100828.69
-0.7285,0.0239,-0.2305,14.146,-48.232,-2.805,0.7645,100829.03
-0.7432,0.0596,-0.3062,13.78,-23.902,-8.232,0.806,100829.04
-0.793,0.1606,-0.2593,-3.476,-2.195,-10.732,0.8496,100828.8
-0.7983,0.2188,-0.1904,-29.085,6.707,-10.976,0.8494,100828.62
-0.9062,0.2402,-0.2769,-40.854,5.854,-10.488,0.9776,100828.62
-1.0283,0.2251,-0.373,-35.061,3.841,-9.512,1.1168,100829.21
-1.0449,0.165,-0.3115,-25.488,9.024,-10.0,1.1028,100828.68
-0.9707,0.1343,-0.2075,-21.829,9.146,-11.524,1.0017,100829.98
-0.9951,0.1499,-0.2695,-26.768,1.768,-8.293,1.0418,100829.98
-1.1035,0.2207,-0.5132,-31.159,-0.183,-5.061,1.2369,100830.21
-1.0972,0.2959,-0.5742,-31.22,17.927,-7.5,1.2732,100830.26
-1.0732,0.3188,-0.3032,-28.598,30.122,-10.488,1.1599,100830.53
-1.1831,0.27,0.1123,-24.024,16.037,-7.805,1.2187,100830.99
-1.0571,0.1445,0.1655,-27.805,13.537,-2.805,1.0797,100830.12
-0.9644,0.0659,0.0386,-22.805,27.744,8.78,0.9674,100830.09
-1.0439,0.1069,-0.0151,-8.598,4.756,3.293,1.0495,100828.99
-0.8564,0.0991,-0.189,-13.659,-27.866,-15.549,0.8826,100828.88
-0.7378,0.1265,-0.2368,-12.439,-16.098,-10.732,0.7851,100828.54
-0.7583,0.1372,-0.2422,-5.915,-3.902,-7.622,0.8078,100829.4
-0.8428,0.1191,-0.23,-0.061,4.024,-2.744,0.8817,100829.54
-0.9043,0.0996,-0.2275,2.378,1.098,3.902,0.9378,100830.52
-0.9243,0.0942,-0.3247,0.244,-5.0,7.378,0.9842,100830.88
-0.9658,0.0488,-0.373,0.183,0.732,6.402,1.0365,100831.15
-1.0332,0.0249,-0.2075,4.756,10.671,2.683,1.0541,100830.62
-1.1826,0.1152,-0.2964,-0.671,11.646,-3.72,1.2246,100830.7
-1.1714,0.332,-0.6309,-9.878,-16.646,-10.122,1.3713,100830.72
