ax,ay,az,gx,gy,gz,avm,pressure
1.1206,-0.0513,-0.0879,-23.415,-12.561,6.28,1.1252,100744.01
0.9951,-0.0693,-0.043,-29.573,-5.366,6.707,0.9985,100743.55
0.8965,-0.0869,-0.0303,-27.5,4.329,1.037,0.9012,100743.7
0.9487,-0.0713,-0.0815,-14.146,2.012,-3.171,0.9549,100742.84
0.9858,-0.0791,-0.1328,-10.0,9.268,-5.61,0.9979,100743.03
0.959,-0.0859,-0.1655,0.061,16.402,-1.22,0.977,100744.06
0.8643,-0.1016,-0.1641,10.061,21.646,9.329,0.8855,100742.99
0.8369,-0.1421,-0.1724,15.793,25.244,10.976,0.8662,100742.42
0.895,-0.1045,-0.1738,22.378,14.329,2.927,0.9177,100743.02
0.9287,-0.0801,-0.2231,11.341,5.61,-4.085,0.9585,100743.19
0.9648,-0.1221,-0.1655,8.72,-7.622,2.134,0.9865,100743.09
1.0,-0.1011,-0.2148,3.902,-10.244,-8.415,1.0278,100742.66
1.0908,-0.0439,-0.2163,9.207,-17.683,-13.415,1.1129,100743.41
1.0366,-0.0166,-0.1108,18.049,-4.634,-10.061,1.0427,100742.91
1.1543,-0.043,0.0625,25.671,5.183,-14.329,1.1568,100742.88
1.1431,0.0122,0.0312,12.439,-15.366,-12.317,1.1436,100743.48
1.0742,0.0474,-0.0889,-16.89,-25.854,-4.146,1.0789,100743.18
0.9663,0.042,-0.1963,-4.085,-4.817,2.073,0.9869,100744.33
0.9932,0.061,-0.0234,16.463,5.549,-2.5,0.9953,100744.7
0.9951,0.0171,-0.1372,-3.78,-0.732,-3.78,1.0047,100743.87
0.8291,0.0088,-0.2412,-6.585,3.11,4.024,0.8635,100743.84
0.7158,0.0356,-0.1641,5.976,7.439,5.976,0.7352,100744.08
0.8081,0.0342,-0.1631,1.28,3.293,-0.976,0.8251,100744.13
0.9434,0.0239,-0.2607,-2.622,-1.22,-0.915,0.979,100743.59
0.9995,0.0562,-0.3315,17.134,7.134,22.5,1.0546,100742.99
1.041,0.0229,-0.2026,12.5,4.024,15.854,1.0608,100743.35
1.1851,-0.0278,-0.2358,-10.61,-19.329,6.829,1.2086,100743.73
1.1147,-0.085,-0.3428,-17.195,-20.854,9.329,1.1693,100744.25
1.1118,-0.126,0.0518,9.573,-0.183,5.915,1.1201,100744.3
1.125,-0.1206,0.2065,-15.671,-0.244,-0.427,1.1501,100743.22
0.9844,-0.1055,-0.0332,-51.524,-14.451,1.22,0.9906,100743.26
0.8081,-0.0913,-0.1064,-42.378,-4.024,1.585,0.8202,100743.43
0.8125,-0.0522,-0.0439,-26.463,4.268,-8.902,0.8154,100743.91
0.9619,-0.0537,-0.1875,-29.634,-4.634,-17.744,0.9815,100744.16
0.9663,-0.0425,-0.2544,-12.744,2.5,-10.061,1.0001,100743.24
0.7891,-0.0229,-0.2163,10.244,17.073,3.415,0.8185,100743.78
0.7197,-0.0366,-0.0586,25.183,21.341,2.988,0.723,100743.68
0.8965,-0.0854,-0.043,14.512,26.646,-6.22,0.9016,100743.73
0.9658,-0.0811,-0.1372,1.28,25.122,-3.598,0.9789,100744.63
0.937,-0.0688,-0.2285,-1.89,20.793,-3.598,0.9669,100744.48
1.0728,-0.0645,-0.3286,-2.317,10.549,-12.561,1.1238,100743.51
1.1758,-0.0664,-0.3979,4.695,-2.439,-11.585,1.2431,100743.01
1.2354,-0.021,-0.3594,16.22,-15.061,-3.049,1.2867,100743.27
1.1543,0.0146,-0.3384,31.829,-16.463,4.024,1.203,100744.81
1.2573,-0.0063,0.0474,65.732,-2.134,-2.561,1.2582,100744.85
1.2339,-0.0044,0.2051,40.244,-13.78,-2.683,1.2508,100743.78
1.0986,0.0454,-0.0278,3.049,-31.951,2.012,1.0999,100743.6
0.8735,0.0381,0.0791,7.439,14.695,1.89,0.8779,100743.22
0.7417,-0.0161,-0.0723,-11.037,4.939,3.171,0.7454,100743.91
0.7744,-0.0151,-0.04,-10.976,8.232,0.793,0.7756,100743.85
0.8188,0.0063,-0.1406,-25.976,9.573,5.244,0.8309,100742.94
0.7573,0.0112,-0.3335,-25.732,-1.159,10.305,0.8276,100744.09
0.9204,0.0386,-0.3379,-0.305,3.78,6.707,0.9812,100743.2
1.002,0.0942,-0.269,12.866,6.098,12.073,1.0417,100742.68
1.0347,0.0859,-0.3398,4.512,-3.232,15.976,1.0924,100742.66
1.1099,0.043,-0.2476,4.268,6.159,11.707,1.1379,100743.1
1.2222,-0.0034,-0.2241,-7.805,-14.634,9.756,1.2426,100743.33
1.1963,-0.0249,-0.2046,-15.427,-25.488,16.341,1.2139,100742.41
1.0708,-0.0444,-0.105,-15.854,-18.476,16.951,1.0769,100742.59
1.1084,-0.0903,-0.0225,-18.415,-20.366,1.768,1.1123,100741.99
1.1724,-0.1118,-0.0488,-25.0,-6.646,-3.78,1.1787,100742.28
0.9961,-0.127,0.0112,-19.695,10.671,4.329,1.0042,100741.76
0.7925,-0.1167,0.0889,-17.683,14.085,5.793,0.8059,100742.74
0.771,-0.1025,0.041,-29.39,11.22,-7.317,0.7789,100742.36
1.0122,-0.1328,-0.0972,-35.427,8.537,-19.329,1.0255,100741.95
1.019,-0.126,-0.208,-26.159,13.11,-4.146,1.0477,100742.39
0.7334,-0.0825,-0.2041,-2.5,30.122,16.28,0.7657,100742.47
0.7192,-0.0703,-0.0767,14.268,32.439,11.341,0.7267,100742.16
0.9292,-0.0845,-0.1123,4.085,15.915,2.073,0.9398,100742.44
0.9385,-0.0684,-0.2744,-1.707,10.732,6.463,0.9802,100742.52
0.9224,-0.04,-0.3433,8.963,11.585,-1.037,0.985,100743.41
1.2393,-0.1128,-0.1543,32.317,1.951,-12.317,1.2539,100743.94
1.123,-0.0801,0.0308,16.098,-9.817,-4.878,1.1263,100743.79
1.061,-0.0542,-0.1748,-15.793,-27.744,-11.89,1.0767,100743.3
1.2681,-0.1147,-0.1104,3.049,-22.439,-25.244,1.278,100744.41
1.2383,-0.0708,0.0288,6.402,-16.159,-13.841,1.2406,100744.02
0.9541,-0.0049,-0.1406,-6.89,-22.439,0.061,0.9644,100743.86
0.9707,-0.0239,-0.0288,21.28,-9.085,-4.939,0.9714,100743.61
1.0674,-0.0508,0.2515,30.854,5.305,-4.756,1.0978,100743.8
0.8647,-0.0396,0.0957,-4.451,-0.671,6.829,0.8709,100744.18
0.7051,0.0132,-0.1133,-23.841,-6.28,6.951,0.7142,100743.99
0.7227,0.04,-0.1963,-19.39,-5.061,5.488,0.7499,100743.09
0.7529,0.0366,-0.1846,-5.854,0.0,10.671,0.7761,100743.79
0.8657,0.0327,-0.167,-3.598,1.28,10.122,0.8823,100743.69
0.9971,0.0469,-0.228,-14.207,-5.183,9.451,1.0239,100744.09
1.0264,0.0605,-0.312,-18.293,-4.939,10.976,1.0745,100743.93
1.0713,0.0474,-0.3467,-15.61,-8.476,7.866,1.127,100743.31
1.1851,0.0063,-0.3076,-13.537,-9.268,3.537,1.2243,100743.1
1.1968,-0.0073,-0.3628,-16.585,-18.659,10.366,1.2506,100744.15
1.0659,-0.0024,-0.2949,-1.22,-9.573,16.28,1.106,100743.22
1.0454,-0.0352,-0.1313,-0.61,-11.28,6.22,1.0542,100743.41
1.1255,-0.0898,-0.1724,-9.817,-8.232,-2.256,1.1421,100742.94
1.082,-0.1328,0.0137,3.78,13.232,1.098,1.0902,100742.58
0.9229,-0.1353,0.0933,-5.366,12.378,6.28,0.9374,100742.67
0.8032,-0.1162,0.0444,-19.451,10.549,3.537,0.8128,100742.63
0.8682,-0.1191,0.0117,-26.22,12.073,-8.537,0.8764,100742.34
1.0181,-0.1445,-0.1514,-35.061,7.195,-15.61,1.0394,100743.26
0.9478,-0.1426,-0.2471,-23.171,13.293,-2.5,0.9898,100743.68
0.7681,-0.0894,-0.1846,-2.561,24.085,10.0,0.795,100744.36
0.7437,-0.0757,-0.2168,1.402,20.0,7.012,0.7783,100744.41
0.9048,-0.064,-0.1895,9.207,14.329,0.793,0.9266,100744.32
0.9282,-0.0537,-0.2856,6.829,10.427,3.72,0.9727,100744.49
0.9712,-0.0679,-0.311,18.659,8.049,-0.976,1.022,100744.98
1.1079,-0.1167,-0.1787,31.524,7.622,-11.098,1.1283,100745.5
1.2593,-0.1313,-0.0977,19.207,4.939,-13.232,1.2699,100745.02
1.2163,-0.0996,-0.25,0.122,-11.402,-5.427,1.2457,100745.28
1.2568,-0.1006,-0.1074,22.134,-8.11,-7.866,1.2654,100744.73
1.2495,-0.0464,0.1138,21.28,-5.61,-3.963,1.2555,100744.22
1.0483,0.0361,-0.085,-8.232,-22.927,5.183,1.0524,100743.95
0.9536,0.0479,-0.1138,8.11,-17.744,4.634,0.9616,100743.87
0.981,0.0405,0.1172,26.707,-1.585,0.793,0.9888,100743.78
0.8301,0.0142,0.0659,1.341,-6.28,2.927,0.8328,100744.09
0.7358,0.0205,-0.1196,-20.549,-12.866,0.122,0.7458,100744.34
0.77,0.0156,-0.1948,-18.354,-6.341,-1.524,0.7944,100744.4
0.8198,-0.0161,-0.1401,-2.927,3.78,6.341,0.8319,100744.91
0.9224,-0.0151,-0.2485,-8.171,1.037,11.524,0.9554,100744.21
1.0215,0.0366,-0.2666,-3.537,7.683,16.768,1.0563,100743.84
1.0605,0.0366,-0.2314,-6.098,13.049,18.293,1.0861,100743.65
1.1714,-0.0176,-0.2012,-14.878,-6.768,8.11,1.1887,100744.62
1.3154,0.002,-0.2827,-30.854,-28.902,6.585,1.3455,100744.37
1.1338,0.0015,-0.3608,-22.256,-17.866,16.585,1.1898,100744.65
1.1108,-0.0845,0.0015,8.049,1.402,5.915,1.114,100744.04
1.1372,-0.1099,0.1309,-12.988,-7.683,-3.78,1.15,100744.45
0.9722,-0.1064,-0.1421,-43.72,-11.463,-0.976,0.9882,100744.86
0.8467,-0.1035,-0.2246,-26.951,-2.012,-1.768,0.8821,100744.58
0.8848,-0.1006,-0.0513,-2.012,7.744,-10.549,0.8919,100743.98
1.0273,-0.1094,-0.0391,-10.0,4.451,-18.902,1.0339,100744.88
1.0122,-0.0938,-0.2427,-22.195,-4.146,-10.549,1.0451,100744.84
0.7744,-0.0596,-0.3276,-3.476,9.329,8.72,0.843,100744.69
0.6719,-0.0698,-0.2485,23.476,22.805,11.707,0.7198,100744.09
0.793,-0.0962,-0.1162,35.671,24.817,4.329,0.8072,100744.48
0.8208,-0.0918,-0.1401,24.024,19.573,1.159,0.8377,100744.52
0.9092,-0.082,-0.2778,12.866,9.451,-10.244,0.9542,100743.58
1.1313,-0.127,-0.3682,18.902,1.585,-18.476,1.1965,100743.51
1.1929,-0.1172,-0.1626,40.671,12.805,-11.524,1.2096,100743.44
1.1411,-0.04,-0.0435,26.524,-3.171,-8.171,1.1426,100743.62
1.2417,-0.0503,-0.166,14.085,-14.085,-17.439,1.2538,100743.52
1.3477,-0.0703,0.1816,37.805,-6.768,-18.354,1.3617,100743.46
1.0923,0.0317,0.189,-3.293,-17.317,-5.549,1.109,100743.28
0.8931,0.0532,-0.2646,-41.341,-34.451,-7.134,0.933,100743.16
1.001,0.0117,-0.23,0.732,-14.756,-12.561,1.0271,100743.42
1.0015,0.0044,0.0591,29.817,13.963,-2.744,1.0032,100743.52
0.7632,0.0,-0.0073,4.695,9.329,6.768,0.7632,100743.59
0.7544,0.0142,-0.1592,-8.902,-8.293,3.902,0.7711,100743.4
0.8071,0.02,-0.2275,-1.159,0.122,9.817,0.8388,100743.52
0.7866,0.0254,-0.1714,13.659,12.866,20.122,0.8055,100743.45
0.8877,0.041,-0.1304,10.183,4.939,20.061,0.8982,100744.16
0.9985,0.0615,-0.3174,-12.805,-10.366,19.329,1.0496,100744.55
1.0459,0.0703,-0.4873,-12.134,-12.012,20.61,1.156,100744.62
1.1548,0.0581,-0.439,6.585,0.122,21.402,1.2368,100744.78
1.1636,-0.0049,-0.2407,18.354,7.073,23.72,1.1882,100743.34
1.125,0.0083,-0.1909,5.915,-16.463,21.037,1.1411,100743.48
1.1118,-0.0532,-0.1567,2.439,-16.524,8.476,1.1241,100743.2
1.1982,-0.1289,0.0142,6.22,-1.89,-3.537,1.2052,100743.23
1.0615,-0.1162,0.1162,-3.415,-0.61,-2.317,1.0742,100743.38
0.9233,-0.1338,-0.0112,-27.988,-11.829,-6.159,0.933,100743.41
0.9321,-0.145,-0.0806,-26.585,-0.976,-6.28,0.9468,100743.3
0.8203,-0.124,0.0684,-13.476,17.073,-3.537,0.8324,100743.3
0.9663,-0.1323,-0.0039,-29.146,9.024,-13.598,0.9753,100742.85
0.9248,-0.1255,-0.2534,-37.866,0.122,-3.049,0.9671,100743.74
0.7212,-0.0889,-0.333,-12.988,10.549,11.707,0.7993,100743.79
0.7959,-0.0864,-0.2559,15.549,19.512,10.366,0.8405,100744.05
0.8789,-0.1064,-0.2729,23.841,20.305,11.28,0.9264,100743.3
0.9424,-0.0977,-0.2153,31.951,21.037,10.915,0.9716,100743.47
1.02,-0.0815,-0.1396,28.598,17.805,7.378,1.0328,100743.59
1.001,-0.1216,-0.2744,11.585,4.512,-1.098,1.045,100744.05
1.0942,-0.126,-0.2231,19.085,10.549,-16.89,1.1238,100744.03
1.207,-0.0835,-0.1689,11.341,-11.524,-22.5,1.2217,100743.41
1.1362,-0.063,-0.4204,-9.756,-31.463,-19.878,1.2131,100744.3
1.1724,-0.0972,-0.2817,23.232,-12.744,-23.78,1.2097,100744.1
1.0376,-0.0791,-0.0039,1.341,-25.549,-11.098,1.0406,100744.04
0.9736,-0.0562,-0.1606,-2.805,-28.659,-10.671,0.9884,100745.01
0.9614,-0.0581,0.0176,24.451,-3.232,-6.402,0.9633,100744.51
0.8296,-0.0713,0.1035,19.512,12.134,2.561,0.8391,100745.12
0.7236,-0.0513,0.0303,-0.854,2.317,7.866,0.7261,100745.95
0.7173,-0.0205,-0.0825,-15.305,3.415,6.768,0.7223,100744.86
0.7822,-0.002,-0.1987,-20.488,3.902,7.073,0.8071,100744.05
0.8237,-0.0088,-0.2168,-16.707,13.659,11.646,0.8518,100744.65
0.9272,0.0122,-0.3179,-27.5,4.512,8.049,0.9803,100744.99
1.1543,0.0146,-0.5078,-33.049,-16.707,3.841,1.2611,100745.49
1.2329,0.0,-0.4087,-11.159,-2.805,11.524,1.2989,100745.36
1.2134,-0.0078,-0.2632,-5.305,-3.72,18.841,1.2416,100744.55
1.1655,0.043,-0.3159,-16.463,-19.207,21.89,1.2083,100745.02
1.1221,-0.0234,-0.2251,-2.378,-3.598,17.195,1.1447,100744.55
1.0352,-0.0884,0.1191,11.89,9.39,5.488,1.0457,100744.31
0.9688,-0.0767,0.1299,-17.561,-9.817,-9.878,0.9804,100744.24
1.0342,-0.0742,-0.0903,-39.39,-13.476,-19.146,1.0408,100744.94
0.9219,-0.0908,-0.0952,-23.659,10.305,-12.256,0.9312,100744.96
0.8184,-0.104,-0.0186,-12.866,17.927,-10.183,0.8252,100744.87
0.8403,-0.104,-0.0762,-21.341,7.317,-13.963,0.8502,100744.2
0.8428,-0.1021,-0.2466,-26.098,3.171,-8.537,0.884,100742.97
0.8042,-0.0933,-0.3125,-6.585,12.317,1.402,0.8678,100743.15
0.8462,-0.0859,-0.2627,17.5,23.171,5.488,0.8902,100744.02
0.9619,-0.0732,-0.2314,25.793,18.171,5.122,0.9921,100744.3
1.0352,-0.083,-0.3022,22.744,4.268,2.5,1.0816,100744.28
1.0532,-0.1089,-0.3262,32.561,6.341,1.829,1.1079,100745.24
1.0425,-0.0781,-0.104,49.451,16.463,0.732,1.0506,100745.46
1.1064,-0.0303,0.0112,28.354,-2.256,-3.963,1.1069,100744.66
1.2012,-0.0215,-0.3062,-3.963,-22.5,-12.561,1.2398,100744.28
1.416,-0.123,-0.2271,28.841,-8.476,-14.817,1.4394,100744.25
1.2349,-0.0791,0.1562,45.0,9.817,11.28,1.2472,100744.14
0.8545,-0.021,-0.0044,6.524,-7.378,20.183,0.8548,100744.19
0.8882,-0.0342,-0.0278,6.402,-18.72,1.89,0.8893,100743.2
1.0337,-0.0439,0.1079,10.305,-3.72,-4.878,1.0402,100743.23
0.8491,-0.0317,-0.0615,-11.098,-7.378,6.159,0.8519,100743.23
0.6904,-0.0122,-0.2729,-15.976,-4.512,5.976,0.7425,100744.34
0.7197,0.0078,-0.3101,7.195,8.659,5.427,0.7837,100744.93
0.7944,0.019,-0.1729,30.549,18.476,12.134,0.8132,100745.35
0.8325,0.001,-0.0317,29.024,28.476,16.341,0.8331,100744.7
0.8989,-0.0239,-0.103,1.646,7.622,9.39,0.9051,100744.58
1.1499,-0.0415,-0.2139,-12.5,-5.732,-0.427,1.1704,100744.46
1.2769,-0.0532,-0.1665,-15.915,7.927,6.28,1.2888,100743.7
1.2207,-0.0625,-0.2852,-32.744,0.549,12.256,1.2551,100743.84
1.1826,-0.0312,-0.3555,-26.341,-16.585,13.354,1.2353,100744.19
1.1274,-0.0796,-0.1406,-0.793,-2.439,8.049,1.139,100743.83
1.1685,-0.1284,0.085,2.927,-2.317,-2.622,1.1786,100743.8
1.1279,-0.1406,0.0542,-16.22,-8.902,-4.146,1.138,100743.16
0.9502,-0.1143,0.063,-18.537,5.244,2.073,0.9591,100743.47
0.8105,-0.0581,0.1021,-25.061,5.854,-2.683,0.819,100743.67
0.8867,-0.0674,-0.0366,-37.622,-9.512,-15.488,0.89,100743.36
0.9014,-0.1064,-0.1763,-28.537,-5.0,-11.768,0.9246,100743.09
0.6621,-0.0654,-0.062,9.329,17.866,8.232,0.6682,100743.64
0.751,-0.0947,-0.1182,10.244,17.744,3.049,0.7661,100743.56
0.9556,-0.0933,-0.0776,15.183,14.451,-1.646,0.9632,100744.02
0.9971,-0.0762,-0.2427,6.89,7.866,-1.524,1.029,100744.83
1.0513,-0.0747,-0.3433,18.11,10.305,-6.829,1.1084,100743.98
1.1797,-0.0845,-0.2729,35.732,10.183,-15.549,1.2138,100743.92
1.2764,-0.0898,-0.2041,31.829,5.122,-13.415,1.2957,100744.15
1.1099,-0.0562,-0.4146,16.159,-11.707,-5.854,1.1861,100744.45
1.1855,-0.0879,-0.2603,49.634,-19.817,-15.793,1.217,100744.91
1.1738,-0.106,0.355,68.354,-5.976,-15.671,1.2309,100745.5
1.0737,-0.0591,0.0317,-5.0,-39.573,-14.695,1.0758,100744.36
1.0259,-0.0083,-0.2202,-16.28,-49.268,-9.878,1.0493,100744.48
0.8682,0.0156,-0.0063,14.878,-18.78,-2.378,0.8683,100744.59
0.8369,0.002,0.0166,11.707,-8.659,-8.537,0.8371,100744.9
0.9292,-0.0195,-0.1006,-2.744,-12.317,-8.11,0.9348,100744.88
0.8457,-0.0317,-0.2407,-11.341,-3.476,7.012,0.8799,100744.37
0.7197,-0.0239,-0.2017,4.878,12.561,19.512,0.7478,100743.64
0.7632,-0.0234,-0.0752,16.402,19.756,18.963,0.7672,100744.07
0.897,0.0015,-0.0903,-4.573,10.244,15.549,0.9015,100744.49
0.9302,0.0117,-0.2402,-26.037,4.573,13.354,0.9608,100743.97
1.1265,0.0103,-0.2891,-27.805,2.378,7.622,1.163,100743.82
1.1587,0.0259,-0.2104,-27.988,-3.293,12.439,1.1779,100743.8
1.0796,0.0449,-0.2754,-36.463,-14.817,9.878,1.1151,100743.84
1.2129,-0.0107,-0.1401,-18.78,-19.817,-6.707,1.221,100743.97
1.3384,-0.0356,-0.0474,-17.134,-7.012,-8.537,1.3397,100743.85
1.1406,-0.0649,-0.125,-22.378,10.183,0.732,1.1493,100743.23
1.0078,-0.0894,-0.0356,-9.756,11.829,3.232,1.0124,100743.28
0.8101,-0.062,0.0522,-12.378,15.061,3.537,0.8141,100743.2
0.8867,-0.0684,-0.043,-26.524,6.585,-10.732,0.8904,100742.41
1.0234,-0.1089,-0.2056,-28.171,3.537,-11.402,1.0495,100742.92
0.8267,-0.0806,-0.2168,-7.927,18.415,8.11,0.8584,100742.71
0.6372,-0.0625,-0.1978,7.744,20.061,13.72,0.6701,100742.17
0.8291,-0.0757,-0.2085,19.024,17.866,4.878,0.8583,100742.76
0.9277,-0.0767,-0.1665,24.817,23.537,9.329,0.9457,100743.33
0.8433,-0.0557,-0.2388,14.817,17.073,8.598,0.8782,100744.12
1.1021,-0.0767,-0.3579,12.866,0.61,-8.415,1.1612,100743.62
1.2686,-0.1006,-0.2939,28.902,3.11,-9.39,1.306,100744.34
1.1421,-0.082,-0.0181,38.293,1.768,-6.524,1.1452,100743.91
1.1787,-0.0859,-0.1504,17.866,-23.293,-14.146,1.1914,100743.73
1.2573,-0.125,-0.083,30.915,-4.817,-15.976,1.2662,100744.16
1.1753,-0.0728,0.0859,25.793,4.207,-5.305,1.1807,100744.27
0.8999,-0.0049,-0.1401,1.829,-13.659,1.524,0.9108,100745.32
1.0366,0.0117,-0.0269,20.488,-12.683,-9.451,1.037,100744.41
1.0825,-0.0068,0.1084,23.171,-3.293,-4.39,1.088,100744.19
0.811,-0.0049,0.0312,3.232,-5.488,9.085,0.8117,100744.16
0.623,0.0132,-0.0684,-8.171,-8.476,8.537,0.6269,100744.13
0.7295,0.0049,-0.1221,-13.72,-9.756,0.915,0.7397,100743.39
0.8071,-0.0312,-0.1279,-12.805,7.5,1.463,0.8178,100743.06
0.8862,0.0918,-0.1929,-34.085,2.988,12.683,0.9116,100743.16
0.9414,0.0962,-0.4541,-40.366,-17.805,7.134,1.0496,100743.9
1.2935,0.0244,-0.3423,-6.646,-12.195,1.951,1.3382,100744.43
1.3569,0.0063,-0.1133,-0.366,4.146,18.598,1.3617,100744.36
1.0854,0.0215,-0.1611,-24.817,-4.695,22.134,1.0976,100743.8
1.23,-0.0518,-0.1304,-23.78,-10.183,-5.915,1.238,100743.16
1.3799,-0.0962,0.0229,-15.427,0.732,-11.89,1.3834,100743.13
1.0576,-0.0498,-0.063,-25.305,8.293,2.561,1.0607,100743.86
0.7983,-0.0557,-0.2261,-17.988,-2.683,5.427,0.8316,100744.16
0.8105,-0.0874,0.043,14.146,5.244,-2.195,0.8164,100743.77
0.896,-0.1001,0.2036,12.378,-1.28,-5.244,0.9243,100744.47
0.8706,-0.1079,-0.1128,-21.951,-16.829,5.732,0.8845,100744.14
0.7388,-0.0967,-0.2769,-11.341,-8.171,19.512,0.7948,100743.55
0.7534,-0.1304,-0.2739,20.0,-10.61,19.207,0.8122,100743.08
0.915,-0.1479,-0.0713,38.354,7.073,10.0,0.9297,100742.88
0.8525,-0.1304,-0.1318,18.659,5.427,8.171,0.8725,100743.09
1.0166,-0.104,-0.2573,7.744,-5.671,-4.39,1.0538,100742.87
1.0547,-0.1055,-0.3745,5.732,-8.841,-8.72,1.1242,100743.32
1.1221,-0.124,-0.4082,12.561,-11.646,-16.159,1.2004,100744.15
1.1465,-0.0767,-0.2529,19.146,-13.841,-14.451,1.1766,100744.28
1.1055,-0.0483,-0.2969,13.598,-13.293,-16.951,1.1457,100743.28
1.3184,-0.1284,-0.1045,34.024,-13.11,-23.841,1.3287,100742.9
1.1538,-0.0552,0.1206,31.463,-11.402,-6.768,1.1614,100743.35
0.9209,0.001,0.0835,5.671,-14.939,-3.11,0.9247,100742.73
0.9966,-0.0234,-0.0933,-7.256,-12.805,-11.341,1.0012,100744.35
0.9771,-0.0684,-0.1484,2.012,4.634,-3.232,0.9906,100744.3
0.7246,-0.0532,-0.0977,8.476,12.134,11.524,0.7331,100743.69
0.6265,-0.0444,-0.1748,0.0,9.695,10.366,0.6519,100743.82
0.7812,-0.0474,-0.1982,1.037,9.573,7.317,0.8074,100744.43
0.8193,-0.0449,-0.2183,-2.378,14.878,13.049,0.8491,100744.63
0.9141,-0.0078,-0.3701,-14.146,1.89,12.683,0.9862,100743.45
1.0181,0.0195,-0.4199,-10.305,-6.768,13.171,1.1014,100744.02
1.0669,0.0044,-0.4004,-6.463,-1.646,10.854,1.1396,100743.85
1.2598,-0.0493,-0.3135,-4.207,-9.451,8.293,1.2991,100743.93
1.2378,-0.043,-0.3198,-14.268,-17.317,16.463,1.2792,100743.52
1.085,-0.0322,-0.2891,-9.695,-7.927,15.976,1.1233,100743.95
1.1572,-0.0923,0.1304,2.439,-2.256,-1.463,1.1682,100744.02
1.0967,-0.0942,0.0781,-36.463,-6.28,-9.085,1.1035,100743.84
0.8936,-0.062,-0.29,-56.402,-14.695,-6.098,0.9415,100743.12
0.8262,-0.0815,-0.1777,-19.024,3.78,-5.488,0.849,100742.69
0.9072,-0.0996,0.0811,-1.22,9.146,-12.317,0.9163,100742.84
1.0742,-0.1328,-0.1533,-21.768,-3.902,-16.037,1.0932,100742.85
0.9341,-0.1235,-0.2959,-9.695,4.756,1.098,0.9876,100742.84
0.7041,-0.1025,-0.1763,15.0,20.732,13.963,0.733,100741.99
0.7622,-0.1455,-0.123,20.488,24.817,10.61,0.7857,100741.83
0.8501,-0.146,-0.0825,11.402,17.561,8.476,0.8665,100742.94
0.8413,-0.105,-0.3784,-8.537,3.78,4.146,0.9285,100742.8
1.0547,-0.0649,-0.4683,5.732,3.659,-4.695,1.1558,100743.05
1.0796,-0.0825,-0.415,23.049,7.622,-3.415,1.1596,100743.87
1.1958,-0.0947,-0.2661,28.902,-1.585,-6.159,1.2287,100744.47
1.1235,-0.0469,-0.2949,17.378,-16.098,-1.402,1.1625,100745.05
1.1167,-0.0498,-0.4146,23.354,-21.707,-10.488,1.1922,100745.26
1.3188,-0.1548,-0.0737,52.927,-7.927,-15.915,1.3299,100745.17
1.022,-0.0879,0.1138,37.012,-10.122,1.341,1.032,100744.74
0.9199,-0.0386,-0.0098,7.927,-22.927,-6.098,0.9208,100744.41
1.103,-0.0708,-0.1245,2.561,-18.476,-14.512,1.1123,100743.2
0.9478,-0.0791,-0.0479,9.085,2.5,0.854,0.9523,100742.9
0.6719,-0.0425,-0.0703,-0.61,6.951,10.122,0.6769,100743.4
0.708,-0.0337,-0.2173,-13.659,2.622,1.951,0.7414,100742.66
0.7544,-0.042,-0.1631,-6.524,9.146,5.61,0.773,100742.84
0.938,-0.0254,-0.3179,-34.329,-0.671,3.293,0.9907,100743.11
1.0083,0.0107,-0.3677,-26.098,3.659,8.293,1.0733,100743.18
1.0293,0.0083,-0.375,-18.902,5.427,9.756,1.0955,100743.98
1.1992,-0.0278,-0.3472,-12.5,-2.866,7.927,1.2488,100744.09
1.1846,-0.0366,-0.3174,-11.098,-5.61,15.061,1.2269,100743.9
1.0664,-0.0015,-0.2744,-10.976,-6.585,13.171,1.1011,100743.54
1.2422,-0.1021,-0.2046,-7.134,-0.671,-5.61,1.2631,100743.52
1.2427,-0.1411,-0.0767,-4.878,4.939,-3.659,1.253,100743.74
0.9116,-0.1094,-0.0205,-11.037,9.207,9.39,0.9184,100743.27
0.7876,-0.0938,0.043,-19.512,3.415,2.927,0.7943,100743.06
0.8789,-0.0981,-0.0776,-34.329,-1.037,-10.854,0.8878,100742.3
1.0288,-0.1191,-0.2144,-32.439,-1.22,-16.098,1.0576,100742.22
0.9502,-0.1187,-0.2476,-14.329,6.402,-3.11,0.9891,100742.77
0.6997,-0.0635,-0.1475,5.366,13.963,10.427,0.7179,100742.71
0.6689,-0.0693,-0.2339,7.561,11.098,6.341,0.712,100743.02
0.9292,-0.1157,-0.2568,18.415,12.378,-2.622,0.971,100742.77
0.9531,-0.1079,-0.2349,22.439,12.561,3.659,0.9875,100741.85
0.896,-0.0791,-0.2876,18.902,10.732,1.585,0.9443,100742.41
0.9736,-0.0947,-0.3501,20.183,6.341,-12.073,1.039,100743.3
1.2119,-0.0771,-0.1738,27.134,-1.524,-22.195,1.2267,100743.22
1.2563,-0.0645,-0.334,5.793,-20.0,-13.841,1.3016,100743.18
1.0933,-0.0259,-0.4473,18.232,-12.927,-8.537,1.1815,100743.25
1.3389,-0.106,-0.0439,51.037,-8.476,-19.146,1.3438,100743.18
1.1772,-0.0913,0.0728,27.683,-11.159,-2.988,1.183,100744.12
0.9224,-0.0171,-0.1772,-2.317,-28.902,2.988,0.9394,100743.48
1.0264,-0.0347,-0.1719,13.11,-25.915,-5.0,1.0412,100743.4
0.9233,-0.0503,0.0376,24.878,-3.476,2.988,0.9255,100743.55
0.7534,-0.0513,-0.0171,2.378,2.439,6.89,0.7554,100743.66
0.7988,-0.0488,-0.1821,-13.476,-4.817,3.049,0.8208,100743.39
0.8311,-0.0483,-0.249,-10.427,-0.061,9.573,0.8689,100743.43
0.7363,-0.0244,-0.1172,2.561,10.793,20.427,0.746,100743.11
0.7422,-0.0088,-0.1953,-12.195,0.671,19.024,0.7675,100743.95
0.9126,0.0142,-0.3916,-23.963,-8.171,10.671,0.9932,100743.73
1.0161,0.0151,-0.3447,-14.573,8.415,11.646,1.0731,100743.47
1.0332,0.002,-0.2969,-13.354,6.22,11.463,1.075,100743.71
1.2114,-0.0361,-0.3018,-18.78,-5.244,7.073,1.249,100743.44
1.1406,-0.0005,-0.3442,-24.207,-5.427,14.024,1.1914,100743.97
1.0776,-0.0415,-0.3018,-16.098,0.976,6.037,1.1199,100743.75
1.2163,-0.1294,-0.1367,-5.244,9.329,-5.671,1.2308,100743.09
1.0835,-0.1138,-0.0439,-6.585,8.902,0.549,1.0903,100743.22
0.9067,-0.105,-0.1353,-17.683,7.439,1.28,0.9228,100742.95
0.8975,-0.0957,-0.1196,-12.134,1.28,-7.439,0.9104,100742.61
1.0186,-0.1074,-0.1104,-11.463,3.537,-13.72,1.0301,100743.35
1.0137,-0.1299,-0.2271,-12.927,7.317,-5.915,1.0469,100743.3
0.7661,-0.0977,-0.2119,2.622,15.305,10.61,0.8009,100743.59
0.6802,-0.0825,-0.0952,11.829,20.488,10.122,0.6917,100742.62
0.8281,-0.1152,-0.1152,0.488,10.854,0.549,0.844,100743.38
0.9321,-0.124,-0.2603,-9.024,7.256,-0.427,0.9757,100742.83
0.9585,-0.0859,-0.334,-3.659,5.427,0.122,1.0186,100742.67
1.0605,-0.0947,-0.3716,6.585,11.707,-3.415,1.1277,100742.09
1.084,-0.1094,-0.2998,23.171,18.293,-4.085,1.13,100742.12
1.1392,-0.1152,-0.0757,28.902,11.829,-6.22,1.1475,100743.47
1.0928,-0.0444,-0.2358,1.707,-20.854,-3.902,1.1188,100743.75
1.1523,-0.0576,-0.4531,12.378,-22.744,-10.61,1.2396,100743.97
1.1499,-0.1558,0.0332,61.951,11.768,-12.927,1.1609,100743.9
1.0098,-0.0801,0.3271,39.512,4.634,-9.207,1.0645,100744.2
0.9473,-0.0283,-0.0547,-11.951,-13.963,-12.561,0.9493,100743.68
1.061,-0.0601,-0.1318,3.72,1.341,-12.561,1.0709,100744.29
0.9238,-0.0591,0.1338,21.098,24.268,-0.488,0.9353,100743.02
0.7368,-0.0342,-0.0288,-8.78,16.159,1.951,0.7382,100742.95
0.8477,-0.021,-0.2129,-20.671,1.768,-7.256,0.8742,100743.99
0.9517,-0.0547,-0.2734,-12.927,0.61,1.951,0.9917,100742.84
0.8311,-0.063,-0.1138,2.317,8.963,19.146,0.8412,100743.91
0.8462,-0.0405,-0.1733,-15.0,-5.549,16.341,0.8647,100744.08
1.0234,-0.0347,-0.3701,-14.207,-13.354,13.232,1.0889,100744.1
1.1255,-0.0615,-0.2964,-6.402,-0.854,9.878,1.1655,100744.75
1.3374,-0.0879,-0.2236,-5.427,-13.415,11.707,1.3588,100743.88
1.2085,-0.0303,-0.291,-16.646,-26.768,25.244,1.2434,100744.55
1.0391,-0.0278,-0.2939,-8.354,-19.329,20.549,1.0802,100743.73
1.1416,-0.0918,-0.0498,9.756,-9.939,4.512,1.1464,100742.62
0.9985,-0.0874,0.1035,4.268,-4.268,5.061,1.0077,100741.91
0.8154,-0.0645,0.0708,-15.183,-6.098,1.524,0.821,100742.24
0.8745,-0.0957,-0.022,-22.317,-1.402,-9.207,0.88,100742.26
0.9736,-0.1191,0.0195,-13.354,21.707,-12.866,0.9811,100742.98
0.9854,-0.1274,0.0181,-17.195,22.5,-9.695,0.9937,100742.8
0.7871,-0.0952,-0.1934,-24.817,16.768,1.28,0.8161,100742.3
0.6689,-0.0649,-0.1777,-8.598,20.427,4.39,0.6952,100741.93
0.8291,-0.0986,-0.1997,-0.183,19.024,-1.098,0.8585,100741.78
0.959,-0.1094,-0.21,6.524,26.707,1.646,0.9878,100742.28
0.9463,-0.0874,-0.3013,5.915,22.134,3.598,0.9969,100741.31
1.0068,-0.0801,-0.3906,11.646,9.39,-3.415,1.0829,100741.79
1.1914,-0.0996,-0.4053,27.988,5.244,-7.561,1.2624,100743.04
1.2886,-0.1431,-0.2466,45.854,-7.317,-3.293,1.3197,100743.95
1.1006,-0.1187,-0.2168,46.159,-7.378,1.829,1.128,100742.7
1.1128,-0.1201,-0.0186,62.805,-8.902,-9.695,1.1194,100742.84
1.187,-0.1577,0.2051,53.598,-4.329,-14.817,1.2149,100743.07
0.9912,-0.082,0.0454,15.366,-14.817,-8.354,0.9956,100743.37
0.9766,-0.0503,-0.0259,8.841,-15.488,-10.366,0.9782,100742.98
0.9985,-0.0391,0.0996,15.915,1.89,-7.744,1.0043,100742.95
0.9058,-0.0376,0.0298,-0.488,8.841,-6.402,0.907,100742.19
0.8589,-0.0479,-0.1323,-12.683,-1.463,-4.878,0.8703,100741.72
0.8115,-0.0586,-0.105,-9.39,3.537,2.5,0.8204,100741.88
0.8569,-0.0718,-0.1182,-12.744,1.951,7.134,0.868,100742.22
0.9111,-0.0688,-0.2637,-8.963,5.915,17.988,0.951,100742.13
0.8203,-0.002,-0.1006,7.439,20.671,30.0,0.8265,100742.2
0.7314,0.0386,-0.104,-15.244,7.866,22.622,0.7398,100741.51
0.959,0.0186,-0.3091,-38.354,-10.671,-2.683,1.0077,100741.36
1.2925,-0.021,-0.2974,-32.622,-8.902,-10.793,1.3264,100741.84
1.3413,-0.0459,-0.2124,-27.073,-7.805,5.61,1.3588,100742.33
1.2002,-0.019,-0.1611,-23.171,0.061,17.378,1.2111,100742.36
1.29,-0.0845,-0.0835,-21.951,8.902,6.402,1.2955,100742.34
1.2891,-0.1245,-0.3359,-20.0,31.341,13.415,1.3379,100742.35
0.7671,-0.1187,0.3706,24.512,-3.293,18.902,0.8601,100742.97
0.9521,-0.1118,0.2017,-29.634,-30.793,-8.78,0.9797,100743.31
0.8853,-0.1147,-0.1733,-44.329,-10.183,-4.207,0.9093,100743.19
0.8599,-0.1074,-0.0078,-12.378,2.683,-4.756,0.8666,100743.1
0.9702,-0.1323,-0.083,-12.073,2.561,-6.768,0.9827,100742.3
0.6958,-0.0981,-0.0391,7.683,13.171,2.805,0.7038,100742.82
0.8613,-0.1182,-0.1675,-3.598,2.073,-7.256,0.8854,100743.08
0.978,-0.1118,-0.2432,0.122,2.805,-3.598,1.014,100742.28
0.9541,-0.0732,-0.3853,4.939,-4.878,2.927,1.0315,100742.32
1.0903,-0.1074,-0.4487,24.878,11.22,-2.927,1.1839,100742.33
1.1655,-0.1416,-0.0776,53.841,19.695,-2.439,1.1767,100742.37
1.2715,-0.1099,-0.3667,26.463,-14.024,-18.293,1.3279,100742.7
1.1138,-0.1675,0.335,46.768,-4.512,-13.171,1.175,100742.52
0.9131,-0.0552,-0.0044,-15.549,-31.159,-15.61,0.9148,100742.74
1.0464,-0.0649,-0.1421,-8.171,-17.866,-18.659,1.058,100742.77
0.9912,-0.1196,0.1895,22.927,9.268,-7.622,1.0162,100742.45
0.8066,-0.0996,0.2114,-0.305,0.732,-3.232,0.8398,100741.98
0.7285,-0.0488,-0.1064,-31.037,-28.293,-3.354,0.7379,100742.45
0.7646,-0.0449,-0.3281,-24.512,-13.537,1.341,0.8333,100742.68
0.8115,-0.0742,-0.1519,7.683,21.707,12.317,0.8289,100742.96
0.832,-0.0688,0.0259,5.244,22.805,18.78,0.8353,100743.07
0.8604,-0.0034,-0.1675,-30.366,-7.805,15.793,0.8765,100743.16
0.9893,0.0303,-0.5264,-43.11,-23.354,10.61,1.121,100742.73
1.0806,0.0117,-0.4619,-6.402,-4.939,11.646,1.1752,100742.28
1.3413,-0.0415,-0.2168,11.402,-4.878,8.11,1.3593,100742.08
1.3799,-0.0278,-0.3242,-9.146,-13.72,17.195,1.4177,100742.89
1.2017,-0.0352,-0.2598,-5.61,-13.476,22.439,1.2299,100743.26
1.2354,-0.125,-0.127,-6.829,-14.146,11.585,1.2481,100742.2
1.1011,-0.1221,-0.1299,-14.024,-7.378,11.159,1.1154,100742.02
0.8188,-0.1431,-0.0298,-15.549,5.427,9.573,0.8318,100742.38
0.8301,-0.1611,0.0679,-21.951,1.341,0.61,0.8483,100742.64
0.7397,-0.1475,0.0415,-33.841,5.854,0.61,0.7554,100742.59
0.8096,-0.1348,-0.0225,-40.0,8.415,-8.72,0.821,100743.15
0.9438,-0.1572,-0.2334,-42.744,7.317,-11.829,0.9849,100743.73
0.7637,-0.0903,-0.1479,-7.012,20.549,2.5,0.7831,100743.27
0.9082,-0.084,-0.3857,-7.683,8.232,-2.927,0.9903,100743.66
0.9141,-0.0815,-0.4062,22.012,16.463,4.695,1.0036,100743.74
0.8828,-0.0684,-0.1992,44.024,25.0,5.854,0.9076,100743.08
0.9854,-0.1021,-0.2705,35.915,12.622,-6.098,1.0269,100743.04
1.1187,-0.1289,-0.1606,45.793,1.22,-15.183,1.1375,100743.62
1.2061,-0.1123,-0.0557,33.415,-10.549,-17.988,1.2126,100743.7
1.2007,-0.0679,-0.4629,12.073,-15.427,-17.073,1.2886,100743.14
1.2959,-0.123,-0.2432,57.622,10.793,-17.073,1.3242,100743.32
1.248,-0.1372,0.2271,65.305,14.573,-7.561,1.2759,100742.98
0.9893,-0.0732,-0.0068,10.183,-9.695,1.22,0.992,100743.21
0.9473,-0.0234,-0.1831,4.207,-28.902,-4.39,0.9651,100743.62
0.96,-0.022,-0.0127,27.439,-11.28,-5.0,0.9603,100743.23
0.8799,-0.0186,0.0869,25.244,0.244,-0.854,0.8844,100743.15
0.7988,-0.0073,-0.0781,7.195,-4.085,1.768,0.8027,100742.73
0.7969,-0.0073,-0.2065,5.671,-1.829,4.329,0.8232,100742.52
0.6826,-0.0259,-0.0718,17.5,8.415,7.5,0.6869,100741.89
0.8105,-0.0312,-0.0371,4.634,7.378,-2.073,0.812,100741.55
0.9917,-0.0171,-0.2271,-16.89,-13.232,1.098,1.0175,100742.05
0.9521,0.0029,-0.3774,-18.11,-26.768,14.878,1.0242,100742.88
0.9717,-0.0264,-0.4497,-7.683,-17.561,16.159,1.071,100742.52
1.2554,-0.1265,-0.3257,10.366,-3.476,9.695,1.3031,100742.24
1.3184,-0.1113,-0.1406,5.61,-5.488,22.439,1.3305,100742.67
1.0396,-0.0522,-0.1821,-21.22,-7.195,27.134,1.0567,100743.0
1.1045,-0.0938,-0.2036,-29.39,-15.244,-0.427,1.127,100743.01
1.1123,-0.1162,-0.1665,-23.72,-24.451,-17.683,1.1307,100743.39
1.0811,-0.0742,-0.1333,-13.415,-19.329,-12.378,1.0918,100743.52
0.8374,-0.0859,-0.063,2.195,14.451,4.878,0.8442,100743.04
0.8403,-0.1089,0.1719,4.695,13.11,-3.171,0.8646,100743.02
1.0317,-0.1162,-0.0205,-31.463,0.244,-10.915,1.0385,100742.77
0.9521,-0.1079,-0.2979,-41.646,3.049,1.707,1.0035,100742.59
0.7466,-0.0708,-0.2793,-17.744,14.268,13.11,0.8003,100742.81
0.7075,-0.062,-0.2603,-0.061,18.415,8.841,0.7564,100743.62
0.9556,-0.0737,-0.2764,14.817,19.329,4.573,0.9975,100742.73
0.9248,-0.0776,-0.2656,26.646,24.451,20.549,0.9653,100742.2
0.8037,-0.0742,-0.2549,32.683,26.829,16.22,0.8464,100742.17
0.9385,-0.1016,-0.2368,35.671,18.72,-4.329,0.9732,100742.77
1.0781,-0.1372,-0.1948,36.037,17.256,-20.122,1.1041,100743.32
1.2632,-0.1606,-0.1934,24.695,0.793,-23.841,1.288,100743.73
1.1655,-0.1084,-0.2505,14.085,-3.598,-15.183,1.1971,100744.05
1.2095,-0.1479,-0.1538,24.695,0.305,-19.939,1.2282,100744.3
1.1992,-0.1826,0.1602,32.195,6.89,-17.5,1.2236,100743.73
1.1138,-0.1338,0.0054,-5.732,-12.561,-15.244,1.1218,100743.92
1.2002,-0.0884,-0.2622,-14.268,-25.732,-10.976,1.2317,100742.98
0.9683,-0.0444,-0.0088,22.378,-0.976,11.89,0.9693,100743.48
0.7476,-0.0234,0.1704,18.78,8.171,15.366,0.7671,100743.24
0.792,-0.0234,-0.0522,-12.134,-6.341,6.098,0.7941,100743.69
0.7578,-0.0005,-0.2236,-15.183,-1.098,9.146,0.7901,100744.5
0.6343,0.0547,-0.1362,3.476,13.72,11.951,0.651,100744.13
0.7021,0.0518,-0.1143,3.354,19.939,2.317,0.7133,100743.73
0.833,-0.0083,-0.1167,-3.354,3.293,-6.646,0.8412,100743.06
1.1729,-0.0293,-0.126,-14.451,-10.915,-10.793,1.18,100742.8
1.2266,-0.0259,-0.2827,-31.402,-10.122,3.78,1.259,100742.98
1.2163,-0.0771,-0.3853,-29.634,-6.037,12.073,1.2782,100742.61
1.2852,-0.0669,-0.3057,-16.402,-10.061,19.756,1.3227,100742.49
1.1104,-0.0332,-0.3545,-10.732,-7.744,26.768,1.166,100742.85
1.189,-0.1167,-0.147,4.634,-9.085,11.707,1.2037,100742.41
1.165,-0.1343,0.0181,3.415,-13.963,4.512,1.1729,100742.44
0.8911,-0.0928,0.0415,-11.098,-16.89,3.902,0.8969,100741.84
0.9253,-0.1436,-0.0117,-14.695,-17.256,-4.817,0.9364,100742.02
0.999,-0.1851,0.0938,-2.866,-0.976,-2.378,1.0203,100742.27
0.873,-0.1602,0.1841,-11.585,7.5,0.366,0.9065,100741.61
0.8525,-0.1152,-0.0498,-42.378,-4.085,-4.085,0.8617,100741.61
0.7798,-0.084,-0.2446,-44.878,3.415,1.829,0.8216,100741.98
0.7168,-0.083,-0.207,-24.878,16.341,3.72,0.7507,100741.64
0.835,-0.0693,-0.1152,-13.049,17.195,-0.061,0.8457,100741.75
0.8335,-0.0308,-0.3052,-18.476,6.829,-0.732,0.8881,100742.58
0.9326,0.0005,-0.5039,-2.866,8.537,-8.11,1.06,100743.3
1.0645,-0.043,-0.374,36.89,25.915,-11.402,1.1291,100743.12
1.0845,-0.0952,-0.0933,53.049,21.524,-15.915,1.0926,100742.6
1.2661,-0.1323,-0.1304,28.963,-0.976,-22.5,1.2797,100742.84
1.0835,-0.0918,-0.2261,14.878,-12.378,-11.22,1.1106,100742.88
1.082,-0.0806,-0.2559,18.72,-13.72,-21.646,1.1148,100742.45
1.2358,-0.145,-0.0674,30.671,-13.354,-29.512,1.2461,100742.71
1.0762,-0.042,-0.313,17.5,-20.122,-9.878,1.1215,100744.06
0.9409,-0.0664,0.2563,46.22,11.159,11.524,0.9775,100743.31
0.7783,-0.0425,0.0767,-1.646,-7.012,13.171,0.7832,100742.78
0.7393,-0.0181,-0.1826,-27.134,-8.11,9.451,0.7617,100742.59
0.7476,-0.0356,-0.2144,-14.939,8.293,11.524,0.7785,100742.34
0.7822,-0.0322,-0.0562,-4.695,24.512,12.805,0.7849,100742.52
0.854,-0.0264,-0.1372,-21.037,19.573,9.634,0.8654,100741.8
1.0093,-0.0142,-0.2427,-28.902,8.476,7.439,1.0381,100742.62
1.1045,-0.0151,-0.3008,-25.915,13.354,11.951,1.1448,100741.87
1.1616,-0.043,-0.3125,-20.0,10.305,15.0,1.2037,100742.3
1.2061,-0.0815,-0.248,-16.402,1.951,20.793,1.234,100742.6
1.1182,-0.0786,-0.2832,-24.207,-9.39,28.049,1.1561,100743.47
1.0908,-0.082,-0.3008,-21.951,-11.646,23.78,1.1345,100743.27
1.2646,-0.1748,-0.0562,-16.524,-8.232,9.817,1.2779,100743.84
1.2026,-0.1777,0.0186,-30.61,-12.744,9.451,1.2158,100742.79
0.8799,-0.1069,0.0356,-39.207,-8.415,16.098,0.8871,100742.99
0.8125,-0.0923,0.1299,-42.195,-6.829,7.805,0.828,100742.88
0.855,-0.0737,0.0645,-54.573,-15.488,-0.183,0.8606,100742.58
0.9102,-0.0854,-0.2061,-62.561,-15.854,-6.037,0.9371,100742.68
0.9443,-0.1064,-0.251,-35.305,-3.293,-1.28,0.9829,100741.95
0.7432,-0.0928,-0.0874,-3.72,15.915,12.622,0.754,100742.48
0.6382,-0.0806,-0.0308,-0.183,16.524,10.915,0.644,100742.62
0.7886,-0.0708,-0.0552,-4.512,14.634,0.366,0.7937,100743.05
0.9722,-0.1035,-0.188,-14.329,17.134,-5.183,0.9956,100743.44
1.1465,-0.1104,-0.3779,-10.61,14.573,-2.805,1.2122,100743.97
1.1055,-0.0928,-0.4058,11.951,16.707,4.451,1.1812,100743.86
1.1104,-0.0825,-0.4434,32.256,8.232,-0.122,1.1984,100745.14
1.0693,-0.0903,-0.2534,51.951,-2.866,-2.378,1.1027,100744.38
0.9473,-0.0835,-0.0723,40.793,-8.11,-7.866,0.9537,100744.3
1.0972,-0.0913,-0.3472,12.927,-25.549,-28.72,1.1544,100743.88
1.3164,-0.1626,-0.2227,38.415,-4.817,-33.598,1.345,100743.33
1.1748,-0.1577,0.1226,52.073,7.317,-12.866,1.1917,100742.91
0.897,-0.0649,0.1104,17.073,-12.5,-4.39,0.9061,100743.3
1.0308,-0.0591,-0.188,-0.244,-22.744,-14.207,1.0494,100742.41
1.0034,-0.0771,0.0396,27.439,2.134,-4.329,1.0072,100742.45
0.7666,-0.063,0.0542,10.549,7.439,4.146,0.7711,100741.88
0.7681,-0.0288,-0.1592,-9.268,-0.61,-2.439,0.7849,100740.96
0.7788,-0.0229,-0.2368,-1.402,-5.61,1.951,0.8143,100741.48
0.7822,-0.0308,-0.0688,10.366,2.805,6.341,0.7859,100741.89
0.9277,-0.0454,-0.1841,-15.0,-9.512,4.756,0.9469,100741.81
1.0469,-0.0254,-0.459,-27.622,-18.598,8.598,1.1434,100742.62
1.0513,-0.001,-0.3242,-5.61,-2.805,15.488,1.1001,100742.59
1.1284,-0.0176,-0.2407,-6.951,-3.476,11.341,1.1539,100742.59
1.1938,-0.0029,-0.3345,-16.463,-17.439,11.341,1.2398,100743.32
1.1382,0.0068,-0.2788,-8.354,-19.085,12.988,1.1719,100743.14
1.1392,-0.0615,-0.1606,-6.646,-9.817,6.646,1.1521,100742.27
1.0347,-0.0952,-0.2344,-14.268,-11.707,3.78,1.0651,100741.9
0.9585,-0.1587,-0.166,-2.5,-10.549,-4.329,0.9856,100742.31
1.0718,-0.2046,-0.0723,4.634,-7.805,-10.976,1.0935,100742.39
0.8921,-0.1948,0.0264,5.305,11.402,-0.427,0.9135,100742.59
0.8286,-0.2051,-0.0098,-4.817,17.5,-6.524,0.8537,100742.72
1.0698,-0.229,-0.1768,-12.683,8.11,-15.305,1.1082,100742.84
0.8979,-0.2046,-0.25,0.061,17.622,4.939,0.9543,100743.16
0.7256,-0.1582,-0.1743,17.012,26.707,13.476,0.7628,100742.3
0.8237,-0.1445,-0.1138,15.427,13.293,7.5,0.844,100742.88
0.8823,-0.1504,-0.2734,-0.244,12.317,8.476,0.9359,100742.95
0.8052,-0.0762,-0.1919,2.744,13.72,8.72,0.8312,100743.48
0.8198,-0.0518,-0.3647,-16.585,-9.817,-9.573,0.8988,100742.89
1.0796,-0.0859,-0.6182,-8.537,-18.354,-26.768,1.247,100742.81
1.2402,-0.1226,-0.3423,32.317,-7.561,-22.866,1.2924,100743.16
1.2368,-0.1338,-0.1929,38.171,-8.476,-11.89,1.2589,100743.03
1.252,-0.1978,-0.1646,39.695,-12.5,-10.732,1.2781,100742.84
1.1426,-0.1748,0.1226,42.988,-10.305,-1.037,1.1624,100743.05
0.877,-0.0869,0.0615,5.183,-15.793,1.707,0.8834,100744.05
1.0928,-0.0591,-0.2656,-15.854,-23.902,-11.768,1.1261,100744.21
1.1055,-0.0806,-0.1377,12.378,-4.756,1.098,1.1169,100744.46
0.9243,-0.0864,0.0698,14.329,9.695,13.354,0.931,100744.64
0.7803,-0.0864,-0.0645,-13.476,9.756,16.341,0.7877,100744.41
0.7554,-0.0732,-0.2329,-22.561,16.28,16.768,0.7938,100744.1
0.7178,-0.0669,-0.1528,-8.78,23.415,18.476,0.7369,100743.62
0.7236,-0.0493,-0.0137,-13.171,20.305,13.72,0.7254,100743.37
0.9014,-0.0332,-0.1416,-40.427,-0.549,8.11,0.913,100742.72
0.9946,-0.0142,-0.4409,-55.0,-8.598,11.89,1.0881,100742.84
1.0542,-0.0142,-0.4341,-32.744,-2.195,11.89,1.1402,100743.32
1.1748,-0.0571,-0.2832,-17.561,3.659,9.939,1.2098,100744.5
1.2495,-0.0874,-0.2437,-23.902,-6.524,13.841,1.276,100744.56
1.1118,-0.0264,-0.4561,-34.024,-18.963,22.988,1.202,100744.35
1.0659,-0.0371,-0.4463,-6.89,-6.037,18.415,1.1562,100744.7
1.1655,-0.1387,-0.0801,12.378,5.915,7.622,1.1765,100744.09
1.0845,-0.1738,-0.0317,-5.854,-2.439,6.829,1.0988,100743.15
0.8936,-0.1602,-0.0269,-10.244,0.122,11.524,0.9082,100742.55
0.8379,-0.1777,0.0933,-8.476,7.561,4.085,0.8616,100742.38
0.8945,-0.1763,0.1084,-21.402,7.012,-7.561,0.9182,100743.2
1.0015,-0.1646,-0.1816,-40.305,-2.866,-14.268,1.031,100743.7
0.979,-0.1436,-0.4014,-22.561,-3.78,-3.232,1.0678,100744.22
0.7236,-0.1064,-0.207,21.768,19.207,13.598,0.7602,100744.87
0.7231,-0.1001,-0.0601,31.646,17.317,7.317,0.7325,100743.73
0.8813,-0.1123,-0.2207,18.963,0.854,-2.073,0.9155,100743.51
0.9019,-0.0903,-0.3018,25.183,6.22,-2.439,0.9553,100743.2
0.979,-0.0806,-0.373,35.976,11.402,-9.573,1.0508,100743.24
1.0762,-0.1006,-0.3462,54.573,2.317,-14.878,1.135,100743.62
1.2178,-0.1279,-0.2397,70.122,1.89,-16.037,1.2477,100743.53
1.1685,-0.1484,-0.1362,66.768,-8.902,-7.561,1.1857,100743.59
0.9546,-0.0898,-0.1519,49.207,-26.28,-3.293,0.9708,100744.27
1.0889,-0.0781,-0.4092,38.171,-41.707,-22.805,1.1658,100744.54
1.3281,-0.1294,-0.4082,65.183,-35.976,-29.756,1.3955,100743.88
0.9829,-0.0366,-0.0688,89.817,-12.683,-4.39,0.986,100743.02
0.7803,-0.0117,-0.0405,79.329,-14.146,-10.305,0.7814,100743.23
1.1362,-0.0996,-0.0596,76.89,-18.841,-28.78,1.1421,100742.53
1.0322,-0.1221,0.1885,75.122,1.28,-9.817,1.0564,100742.88
0.7197,-0.0854,0.0615,30.488,-2.195,2.683,0.7274,100743.88
0.6851,-0.0723,-0.2935,3.171,-17.927,-2.866,0.7488,100744.11
0.752,-0.0786,-0.333,23.11,1.098,-1.28,0.8261,100743.94
0.7686,-0.0859,-0.1284,37.134,13.11,2.561,0.7839,100744.29
0.8857,-0.0845,-0.1494,11.22,1.28,-0.488,0.9022,100744.06
0.9785,-0.0732,-0.3755,-14.024,-5.183,1.89,1.0506,100743.89
1.0249,-0.0352,-0.4429,-14.451,-2.744,7.012,1.117,100743.64
1.1885,-0.0669,-0.5635,-8.902,-2.805,8.171,1.317,100743.34
1.3149,-0.1001,-0.2729,19.817,9.085,23.841,1.3467,100743.24
1.1064,-0.1064,-0.2383,12.866,10.732,30.305,1.1368,100743.39
1.1826,-0.2065,-0.2891,17.866,5.976,2.622,1.2348,100742.91
1.2729,-0.1841,0.0791,33.841,8.232,-4.329,1.2886,100743.16
0.7534,-0.1001,0.0044,-19.451,-12.805,-9.939,0.7601,100743.73
0.9014,-0.0776,-0.1006,-24.146,-12.561,-25.61,0.9103,100744.01
1.0288,-0.123,-0.3003,-18.415,-5.0,-29.329,1.0788,100743.61
0.9297,-0.1191,-0.3574,12.866,8.537,-13.171,1.0031,100742.81
0.6538,-0.083,-0.1084,48.293,24.634,0.427,0.6679,100743.23
0.7124,-0.0957,-0.0117,44.085,16.037,-10.122,0.7189,100743.03
0.873,-0.1206,-0.2666,26.646,3.049,-16.585,0.9208,100742.88
0.8857,-0.0918,-0.3047,40.915,8.963,-11.524,0.9412,100743.16
0.9849,-0.0903,-0.2988,51.585,3.415,-13.841,1.0332,100743.21
1.1484,-0.1255,-0.3755,57.866,-0.488,-19.39,1.2148,100743.28
1.2637,-0.1553,-0.3394,77.378,6.524,-16.585,1.3176,100743.19
1.1665,-0.1191,-0.0605,88.841,2.561,-8.11,1.1741,100743.73
1.1304,-0.0776,-0.1963,63.049,-14.39,-17.012,1.1499,100744.16
1.2705,-0.1343,-0.208,71.585,-19.817,-27.073,1.2944,100745.07
1.2378,-0.1182,0.0234,79.451,-5.671,-14.268,1.2436,100744.9
0.9771,-0.0273,-0.1265,49.329,-15.671,-1.28,0.9856,100745.52
0.9385,0.0166,-0.0747,55.366,-17.439,-1.402,0.9416,100744.14
0.9565,-0.0107,0.2085,55.244,0.305,2.012,0.9791,100743.37
0.7559,-0.0122,0.1309,16.585,5.488,5.793,0.7672,100742.66
0.7026,0.0078,-0.1719,-11.768,-7.805,-8.049,0.7234,100742.74
0.8662,0.0132,-0.3994,-1.402,-15.915,-15.061,0.954,100742.79
0.7612,0.0269,-0.2627,35.854,12.378,-0.732,0.8057,100742.85
0.6763,0.0283,-0.0972,45.0,22.439,-3.232,0.6838,100742.99
1.0327,0.0078,-0.2002,24.695,-9.695,-15.305,1.052,100743.11
1.063,-0.0298,-0.3198,11.951,-8.415,1.159,1.1105,100743.68
1.0713,-0.0767,-0.3667,7.561,-5.671,5.732,1.1349,100743.64
1.2842,-0.123,-0.335,9.024,-15.122,6.22,1.3328,100743.25
1.127,-0.0488,-0.2598,10.732,-18.415,25.0,1.1575,100742.83
0.979,-0.0381,-0.2622,5.183,-17.317,14.634,1.0142,100743.11
1.2954,-0.1152,-0.2461,11.829,-14.451,-15.61,1.3236,100742.59
1.2954,-0.1069,-0.1636,26.829,-3.11,-7.927,1.3101,100742.56
0.8882,-0.0874,0.064,36.463,12.195,6.951,0.8948,100742.66
0.7793,-0.0928,0.2236,22.073,0.061,-4.878,0.816,100742.48
0.9497,-0.1074,0.0103,-11.585,-23.354,-20.732,0.9558,100742.74
0.9673,-0.1211,-0.249,-20.0,-22.439,-15.061,1.0061,100741.83
0.7603,-0.0859,-0.2803,5.61,2.866,1.098,0.8148,100742.64
0.6782,-0.0645,-0.2144,29.695,17.561,2.744,0.7142,100742.14
0.7817,-0.0938,-0.2305,38.415,15.305,-5.671,0.8204,100742.61
0.894,-0.1177,-0.2993,45.427,21.646,-8.171,0.9501,100742.61
0.875,-0.1206,-0.2061,56.646,25.915,-8.293,0.907,100743.08
1.019,-0.1465,-0.2202,49.817,14.329,-20.549,1.0528,100742.7
1.2041,-0.1714,-0.2549,47.622,11.646,-26.22,1.2427,100743.63
1.1748,-0.1777,-0.2163,49.085,8.476,-17.683,1.2077,100744.09
1.0996,-0.1191,-0.2563,38.171,-6.463,-11.341,1.1354,100744.45
1.0513,-0.0693,-0.3716,39.024,-13.415,-14.695,1.1172,100744.59
1.2012,-0.106,-0.1826,64.146,-9.329,-25.305,1.2196,100744.36
1.2593,-0.1108,0.1128,64.024,-3.72,-17.439,1.2692,100744.27
1.043,-0.0449,-0.0459,30.915,-13.841,-2.378,1.0449,100743.72
1.0078,-0.0122,-0.0674,29.634,-11.402,-0.244,1.0101,100743.66
0.8716,-0.0195,0.1216,30.183,-0.366,4.939,0.8802,100743.88
0.6816,0.0015,0.0278,0.0,-3.963,1.951,0.6822,100743.92
0.7803,0.0073,-0.2393,-21.646,-18.293,-8.78,0.8162,100743.72
0.814,-0.0161,-0.3662,-6.646,-7.683,-0.122,0.8927,100742.94
0.7295,-0.0386,-0.1377,21.951,17.378,10.244,0.7434,100741.87
0.8721,-0.0649,-0.103,10.854,11.159,3.598,0.8805,100741.8
1.0913,-0.0596,-0.2896,-12.195,-3.537,3.293,1.1306,100742.48
0.9927,-0.0308,-0.4478,-15.915,2.622,15.732,1.0894,100742.75
1.0156,-0.0601,-0.4448,-5.854,3.11,12.195,1.1104,100743.34
1.25,-0.1235,-0.3057,3.476,-1.585,8.659,1.2927,100743.26
1.144,-0.106,-0.1372,-3.902,-5.793,22.073,1.1571,100742.95
1.0918,-0.0596,-0.1821,-25.488,-11.402,15.244,1.1085,100743.98
1.2979,-0.1113,-0.1353,-25.976,-5.244,-0.488,1.3096,100743.27
1.1777,-0.0825,-0.0259,-26.463,0.793,7.866,1.1809,100742.12
0.7925,-0.041,-0.1011,-36.402,2.195,12.5,0.8,100742.61
0.772,-0.0557,-0.0801,-26.402,-2.866,-2.378,0.7781,100742.99
0.9365,-0.0835,-0.1143,-21.402,-2.378,-16.28,0.9472,100742.32
1.061,-0.1387,-0.2095,-11.098,6.585,-15.183,1.0904,100742.41
0.8306,-0.1289,-0.1001,11.707,20.61,2.256,0.8464,100742.34
0.6724,-0.1152,-0.0728,14.939,23.171,3.598,0.686,100742.77
0.7847,-0.1436,-0.1323,11.037,13.902,-5.427,0.8086,100742.35
0.8906,-0.1616,-0.2529,9.268,13.232,-6.159,0.9398,100743.29
0.8706,-0.145,-0.3086,20.366,18.598,-3.659,0.935,100742.39
1.0161,-0.1509,-0.2725,33.537,14.634,-8.902,1.0628,100742.32
1.1089,-0.168,-0.2993,36.829,5.305,-8.841,1.1608,100742.55
1.1597,-0.1626,-0.2539,37.988,-6.22,-6.829,1.1982,100742.81
1.1279,-0.1211,-0.2778,27.622,-19.634,-5.305,1.1679,100742.3
1.2134,-0.062,-0.458,32.195,-17.805,-13.598,1.2984,100743.13
1.3013,-0.1567,0.0845,51.707,-14.695,-16.89,1.3134,100742.78
1.1353,-0.1187,0.1665,19.39,-18.354,-7.134,1.1535,100742.62
0.9492,0.0005,-0.0806,-12.5,-30.427,-5.61,0.9526,100743.62
1.1445,-0.0181,-0.166,-4.39,-17.927,-10.915,1.1567,100743.74
0.9883,-0.0581,-0.043,12.073,1.829,3.963,0.9909,100743.61
0.7607,-0.0522,0.0161,4.268,7.073,10.244,0.7627,100742.89
0.7212,-0.0308,-0.1323,-15.122,-2.073,7.561,0.7339,100742.48
0.7305,0.0,-0.1787,-13.841,3.537,11.707,0.752,100742.53
0.6528,-0.0005,-0.1323,-9.512,13.049,15.427,0.6661,100741.83
0.8105,-0.0244,-0.2227,-15.061,0.366,7.805,0.8409,100742.16
1.0317,-0.0439,-0.2837,-10.244,-1.829,8.963,1.0709,100742.41
1.0757,-0.0371,-0.2983,-6.585,-2.012,14.451,1.1169,100742.59
1.1548,-0.0439,-0.4404,-11.646,-8.049,13.232,1.2367,100742.27
1.1982,-0.0908,-0.3394,-0.793,-4.512,17.317,1.2487,100742.49
0.9961,-0.0464,-0.23,-1.341,-8.78,23.841,1.0234,100743.05
1.0703,-0.0605,-0.1509,-7.866,-11.646,3.659,1.0826,100742.83
1.314,-0.146,-0.1416,-15.732,-11.341,-13.78,1.3296,100743.65
1.1577,-0.1343,-0.0869,-18.841,-3.659,-5.854,1.1687,100742.92
0.918,-0.1299,-0.1152,-20.366,-0.61,0.854,0.9342,100742.5
0.8252,-0.124,0.0029,-11.89,0.061,0.488,0.8345,100742.55
0.8784,-0.125,-0.0562,-17.866,3.293,-6.951,0.889,100742.59
0.9702,-0.1401,-0.1748,-16.768,7.073,-8.415,0.9957,100743.6
0.8325,-0.1328,-0.168,0.122,19.39,3.963,0.8596,100743.27
0.7017,-0.1133,-0.1045,12.256,27.439,7.683,0.7184,100742.89
0.7437,-0.1318,-0.1543,9.268,23.598,-0.976,0.7708,100743.35
0.9458,-0.1431,-0.188,7.683,18.659,-8.902,0.9749,100743.07
0.9907,-0.1362,-0.2866,3.537,13.659,-5.305,1.0403,100744.22
1.0518,-0.1431,-0.4521,6.341,4.085,-6.646,1.1537,100744.23
1.126,-0.1455,-0.4541,29.146,0.671,-8.415,1.2228,100743.26
1.168,-0.1309,-0.2539,52.195,1.829,-3.537,1.2024,100742.65
1.0361,-0.104,-0.166,48.841,-10.366,0.549,1.0545,100743.41
1.1865,-0.1187,-0.1675,42.012,-20.61,-15.305,1.2041,100743.37
1.0669,-0.0825,-0.002,22.866,-21.159,-8.72,1.0701,100742.88
1.0112,-0.0552,-0.1875,11.707,-21.098,-5.305,1.0299,100743.21
0.9399,-0.0317,0.0723,32.866,3.049,3.476,0.9432,100742.48
0.7437,-0.0259,0.1421,10.976,5.427,3.232,0.7575,100742.2
0.7651,-0.0293,-0.1182,-23.476,-5.488,-8.537,0.7748,100742.34
0.8647,-0.0234,-0.2471,-26.646,-6.707,-5.183,0.8997,100743.06
0.8198,-0.0122,-0.2612,-12.622,5.793,8.415,0.8605,100742.87
0.8325,-0.0088,-0.2017,-0.793,11.951,16.463,0.8566,100743.2
0.8525,-0.0229,-0.1909,-5.366,6.646,18.72,0.874,100742.48
0.9292,-0.0127,-0.2637,-21.28,-5.427,15.61,0.966,100742.43
1.0806,-0.042,-0.4458,-29.756,-10.183,11.585,1.1697,100741.88
1.2173,-0.1035,-0.3047,-13.354,-3.78,14.329,1.2591,100741.5
1.1558,-0.0796,-0.1587,-12.317,-5.427,20.305,1.1693,100742.2
1.2075,-0.1094,-0.1348,-18.902,-11.159,7.012,1.2199,100742.23
1.4155,-0.1792,-0.1602,-21.22,-9.146,-3.415,1.4358,100742.37
1.1577,-0.168,-0.1333,-16.402,3.902,10.976,1.1774,100742.36
0.8022,-0.1387,-0.0845,-16.524,5.0,15.366,0.8185,100742.82
0.7891,-0.1382,-0.0894,-18.171,-0.183,4.329,0.806,100742.69
0.8237,-0.1382,-0.0376,-15.915,6.768,-1.707,0.8361,100743.22
0.8501,-0.1367,-0.0864,-23.537,12.012,-6.585,0.8653,100742.88
0.8418,-0.1372,-0.2222,-23.72,9.39,-6.098,0.8814,100742.73
0.7993,-0.1318,-0.2192,-5.366,14.207,-1.89,0.8393,100743.84
0.8096,-0.1333,-0.2397,6.159,17.5,-2.378,0.8548,100743.09
0.8711,-0.1509,-0.3105,15.0,18.415,-4.268,0.937,100742.3
0.8916,-0.1567,-0.2368,25.305,17.378,-5.549,0.9357,100743.02
0.9785,-0.1816,-0.2549,24.024,8.415,-13.171,1.0274,100743.95
1.0957,-0.2095,-0.2021,31.89,9.573,-16.829,1.1337,100743.66
1.209,-0.2017,-0.0557,32.317,4.39,-16.037,1.227,100743.45
1.1875,-0.1274,-0.2168,5.122,-24.512,-9.939,1.2138,100744.04
1.1909,-0.0957,-0.4766,7.561,-30.0,-11.402,1.2863,100743.38
1.2417,-0.1216,-0.1357,49.573,-11.28,-8.78,1.255,100743.74
0.9692,-0.0757,0.1104,37.378,-7.5,-0.732,0.9784,100743.76
0.938,-0.0352,-0.1006,-1.28,-29.939,-11.341,0.944,100742.53
1.1084,-0.0596,-0.1519,1.89,-22.195,-14.024,1.1203,100742.37
1.0132,-0.083,0.0303,15.305,-0.976,-1.402,1.017,100741.86
0.8267,-0.0527,0.0508,-1.585,0.183,3.841,0.8299,100741.97
0.7134,-0.0166,-0.2261,-23.11,-6.524,2.988,0.7485,100741.34
0.7246,-0.0176,-0.293,-5.732,4.756,5.915,0.7818,100741.58
0.686,-0.0518,-0.1133,14.39,19.878,9.634,0.6972,100741.05
0.8281,-0.0918,-0.1079,0.915,13.598,3.902,0.8402,100741.62
1.0078,-0.1016,-0.2271,-15.244,3.11,4.756,1.0381,100742.3
1.0625,-0.0605,-0.2681,-21.402,2.317,13.171,1.0975,100743.04
0.9888,-0.0278,-0.4355,-32.195,-4.817,15.0,1.0808,100743.46
1.2222,-0.0801,-0.5303,-22.622,-12.744,8.232,1.3347,100743.06
1.2617,-0.1265,-0.2725,2.927,-9.39,23.476,1.297,100743.1
0.9868,-0.0762,-0.1104,-3.902,-2.744,32.927,0.9959,100742.79
1.062,-0.0967,-0.0059,-18.232,-1.768,8.659,1.0664,100743.14
1.3354,-0.1514,-0.0449,-41.28,-4.39,-11.89,1.3448,100742.81
1.0439,-0.1025,-0.1909,-50.244,5.732,4.512,1.0662,100742.56
0.7466,-0.0835,-0.0332,-30.122,23.293,11.159,0.752,100741.88
0.8384,-0.0781,0.0757,-29.39,8.476,-1.037,0.8454,100742.22
0.9546,-0.0825,-0.1616,-42.927,0.366,-8.841,0.9717,100741.88
0.9927,-0.0918,-0.2646,-27.439,11.22,-6.768,1.0314,100741.5
0.8022,-0.0908,-0.1411,16.951,27.5,1.768,0.8196,100742.32
0.8774,-0.1143,-0.084,16.159,19.878,-3.476,0.8888,100742.46
0.9424,-0.1436,-0.251,5.549,12.134,-4.39,0.9857,100743.15
0.9058,-0.1309,-0.248,14.39,16.463,-0.976,0.9482,100744.39
0.9321,-0.145,-0.3389,14.146,7.683,-7.622,1.0024,100743.65
1.0728,-0.1694,-0.3501,26.707,1.098,-14.756,1.1411,100743.3
1.1411,-0.1694,-0.1309,40.122,3.171,-13.049,1.161,100742.7
1.124,-0.0879,-0.0747,24.695,-12.988,-12.134,1.1299,100742.61
1.3237,-0.0889,-0.3579,15.732,-20.61,-21.89,1.3741,100743.41
1.3662,-0.1182,0.0288,62.073,2.195,-9.573,1.3716,100743.28
1.0098,-0.0317,0.3682,47.073,4.024,4.939,1.0753,100743.91
0.9248,0.022,-0.0532,-12.683,-28.902,-7.378,0.9266,100744.88
1.0439,-0.0078,-0.1685,-6.524,-20.732,-8.78,1.0575,100744.24
0.8555,-0.0127,0.0127,7.256,-0.244,4.634,0.8557,100744.28
0.7114,0.019,-0.0737,-12.988,-9.268,1.707,0.7155,100744.05
0.8076,0.0229,-0.3262,-20.305,-17.744,-4.268,0.8713,100743.73
0.8281,0.0186,-0.2632,10.854,1.037,8.598,0.8691,100742.79
0.7412,-0.0122,0.0024,27.927,15.305,19.39,0.7413,100742.32
0.8618,-0.0547,-0.0396,1.707,4.512,13.354,0.8645,100742.22
1.02,-0.0601,-0.248,-23.415,-5.793,12.256,1.0515,100741.65
1.0508,-0.0376,-0.2974,-25.366,-3.598,18.659,1.0927,100742.7
1.0938,-0.0352,-0.3003,-26.402,-3.659,19.085,1.1348,100743.37
1.2061,-0.0669,-0.3882,-28.72,-12.012,17.256,1.2688,100743.6
1.1924,-0.0698,-0.3906,-18.72,-13.537,27.256,1.2567,100743.3
0.9741,-0.1489,-0.2495,35.061,19.634,-10.549,1.0165,100744.2
1.1821,-0.2007,-0.2124,38.72,7.988,-17.317,1.2177,100744.35
1.0864,-0.1411,-0.229,22.927,-11.829,-12.988,1.1192,100744.29
1.3364,-0.1494,-0.2417,35.183,-14.695,-25.366,1.3663,100743.96
1.3296,-0.165,0.0762,55.549,1.22,-12.134,1.342,100744.55
1.0884,-0.0952,0.2168,29.207,-10.305,-1.89,1.1138,100744.52
0.9702,-0.0098,-0.0649,-12.622,-39.024,-6.951,0.9724,100744.01
0.9028,0.041,-0.1777,-8.902,-29.939,-6.341,0.9211,100744.25
0.7241,0.0596,-0.064,9.573,-1.463,0.671,0.7294,100743.67
0.6406,0.0444,-0.0293,10.976,7.683,-1.341,0.6428,100743.38
0.8223,0.0088,-0.0913,9.39,1.829,-4.451,0.8274,100743.13
1.0366,-0.0215,-0.3789,-47.073,-10.61,5.915,1.1039,100743.2
0.9814,-0.0273,-0.3623,-39.39,-4.634,9.024,1.0465,100744.43
1.1836,-0.0303,-0.2793,-40.671,-11.768,3.659,1.2165,100743.94
1.3096,-0.0444,-0.5293,-47.988,-21.768,11.463,1.4132,100743.45
1.2412,-0.0947,0.0127,8.232,-3.171,16.28,1.2449,100742.7
1.1636,-0.1113,0.0034,-15.732,-5.183,12.927,1.1689,100743.01
0.9062,-0.0771,0.0234,-23.78,1.463,14.878,0.9098,100743.13
0.791,-0.0967,-0.0337,-27.866,4.939,8.049,0.7976,100743.34
0.8545,-0.1045,0.0107,-18.598,9.39,-0.732,0.8609,100743.11
0.9985,-0.1235,0.0059,-17.378,12.317,-4.451,1.0062,100743.45
0.9912,-0.1821,-0.2026,-16.524,17.317,0.793,1.028,100743.93
0.8237,-0.1685,-0.1372,10.793,31.037,12.5,0.8519,100743.81
0.7144,-0.1606,-0.0454,20.915,32.012,11.585,0.7336,100743.36
0.8501,-0.1943,-0.084,13.354,21.829,0.366,0.8761,100743.38
0.8936,-0.1934,-0.1431,7.256,17.927,-0.366,0.9254,100743.65
0.876,-0.1587,-0.271,4.39,10.61,-2.805,0.9306,100743.48
1.0137,-0.1553,-0.3418,18.72,6.707,-11.098,1.081,100743.38
1.1592,-0.1543,-0.2056,40.183,10.549,-12.805,1.1873,100743.03
1.2192,-0.1841,-0.0981,39.878,3.598,-11.22,1.237,100742.41
1.1538,-0.1377,-0.1265,26.829,-17.5,-8.354,1.1689,100743.77
1.1978,-0.127,-0.2153,29.878,-27.866,-12.744,1.2236,100743.69
1.2266,-0.2119,0.124,56.098,-4.573,-7.805,1.2509,100743.76
0.9766,-0.1606,0.3608,32.134,-0.488,0.366,1.0534,100744.3
0.9385,-0.0708,-0.0469,-21.098,-35.732,-11.402,0.9423,100744.34
1.0425,-0.0684,-0.1948,-13.598,-27.5,-12.378,1.0627,100743.88
0.9849,-0.082,-0.0039,12.805,-3.598,-1.28,0.9883,100744.12
0.9087,-0.0703,0.0527,3.354,-5.427,1.463,0.9129,100744.69
0.8677,-0.0371,-0.1602,-14.329,-8.232,5.0,0.8831,100743.53
0.7427,-0.0063,-0.2104,-4.39,2.561,14.939,0.7719,100743.39
0.6738,-0.0244,-0.0811,9.573,11.585,15.976,0.6791,100743.53
0.8403,-0.0645,-0.0376,-2.5,4.878,7.012,0.8436,100743.87
1.0039,-0.0728,-0.2432,-25.366,-4.451,6.402,1.0355,100742.64
1.0469,-0.062,-0.4541,-31.463,-5.793,14.085,1.1428,100742.48
1.1118,-0.1128,-0.4502,-14.634,-7.866,18.841,1.2048,100742.98
1.2314,-0.166,-0.1577,4.207,-8.476,22.805,1.2526,100743.21
1.1353,-0.1367,-0.0801,-7.683,-13.415,30.061,1.1463,100742.53
1.0742,-0.105,-0.0732,-20.244,-11.646,21.646,1.0818,100742.74
1.1787,-0.165,-0.0522,-24.573,-8.049,6.098,1.1914,100743.02
1.166,-0.1943,0.001,-28.232,3.171,3.841,1.1821,100742.52
0.957,-0.1953,-0.0083,-34.207,8.354,10.854,0.9768,100742.62
0.8252,-0.1978,-0.0356,-34.939,5.793,11.22,0.8493,100742.21
0.7964,-0.1865,-0.0396,-31.28,9.573,6.28,0.8189,100742.41
0.8647,-0.1938,-0.0962,-29.146,13.049,-4.329,0.8914,100742.05
1.0156,-0.2266,-0.2251,-22.012,8.841,-9.39,1.0647,100742.4
0.9526,-0.2012,-0.1826,4.146,17.5,5.305,0.9906,100743.15
0.7246,-0.1592,-0.0942,15.366,23.476,16.037,0.7478,100743.35
0.7441,-0.1763,-0.1855,9.695,9.695,6.524,0.7869,100743.03
0.8296,-0.1997,-0.2095,13.049,1.829,-1.159,0.8786,100743.15
0.8667,-0.2148,-0.2646,16.89,7.5,-5.366,0.9313,100742.51
1.0083,-0.2729,-0.2021,33.537,7.134,-12.256,1.064,100742.37
1.1265,-0.3066,-0.106,38.354,5.0,-13.841,1.1723,100743.14
1.0986,-0.2773,-0.1733,22.805,-7.439,-14.695,1.1463,100743.21
1.1191,-0.1953,-0.3369,20.122,-28.476,-16.524,1.185,100742.55
1.1797,-0.1826,-0.3042,52.5,-15.427,-14.451,1.2319,100742.41
1.1685,-0.2251,0.2739,81.22,4.085,-6.402,1.2211,100742.3
1.0586,-0.1177,0.249,21.951,-15.915,-5.122,1.0938,100742.72
1.145,-0.0586,-0.2847,-18.902,-30.244,-15.244,1.1813,100742.91
1.2363,-0.0718,-0.0562,14.817,-2.317,-9.024,1.2397,100743.16
0.998,-0.0938,0.1875,10.793,13.537,3.11,1.0198,100742.27
0.8022,-0.0942,-0.0737,-26.829,-9.451,3.049,0.8111,100742.2
0.6914,-0.0781,-0.2412,-28.72,-11.707,4.817,0.7364,100742.27
0.6689,-0.0703,-0.0752,-10.244,1.89,6.524,0.6768,100742.45
0.7349,-0.0791,-0.0923,-18.049,0.61,2.195,0.7448,100742.83
0.9497,-0.0918,-0.2695,-26.037,-6.159,0.671,0.9915,100742.62
1.0166,-0.0967,-0.2988,-13.049,-0.244,10.183,1.064,100742.48
1.0825,-0.1074,-0.2739,-5.854,-3.902,13.78,1.1218,100742.12
1.0786,-0.1147,-0.313,-7.683,-9.207,15.549,1.129,100742.35
1.1592,-0.1553,-0.2842,-6.829,-14.573,13.841,1.2036,100742.75
1.1313,-0.1543,-0.3135,-10.305,-20.305,18.293,1.1841,100742.71
1.0386,-0.0977,-0.27,-4.024,-16.037,21.402,1.0775,100742.06
1.0767,-0.1445,-0.1455,7.866,-3.78,13.171,1.096,100740.94
1.1943,-0.1978,0.0522,5.488,7.744,5.915,1.2117,100740.97
0.75,-0.1118,-0.1226,-38.171,-1.28,12.195,0.7681,100740.85
0.8052,-0.1426,-0.1304,-23.841,2.256,3.11,0.828,100740.42
0.8247,-0.1934,-0.0879,-9.512,17.073,-2.744,0.8516,100741.09
1.0024,-0.2686,-0.0923,-2.866,17.073,-13.78,1.0419,100742.43
1.1426,-0.2896,-0.1606,3.598,10.976,-8.049,1.1896,100742.48
0.8687,-0.2085,-0.0864,14.817,19.756,11.646,0.8975,100742.85
0.6797,-0.1416,-0.1875,7.256,12.439,7.744,0.7192,100742.04
0.8516,-0.1592,-0.3325,10.671,2.378,-5.793,0.9279,100742.53
0.8101,-0.1743,-0.25,25.793,12.744,-2.195,0.8655,100742.41
0.9165,-0.2295,-0.208,29.878,12.561,-9.573,0.9674,100742.81
1.04,-0.27,-0.1646,28.476,6.22,-14.39,1.087,100742.39
1.1182,-0.2681,-0.2031,18.841,-2.256,-17.561,1.1677,100742.44
1.1924,-0.2588,-0.2959,13.537,-12.134,-19.634,1.2555,100742.1
1.1362,-0.207,-0.2256,19.024,-11.768,-13.476,1.1768,100742.94
0.9526,-0.1187,-0.2964,19.817,-16.22,-10.732,1.0047,100742.99
1.0327,-0.1406,-0.1763,40.061,-10.366,-21.22,1.057,100743.11
1.1133,-0.2114,0.1797,45.427,0.793,-22.378,1.1473,100742.25
1.0029,-0.1665,0.1929,9.512,-8.902,-19.085,1.0348,100742.2
1.064,-0.1333,-0.1104,-14.939,-25.915,-25.488,1.0779,100742.52
1.1611,-0.0864,-0.0361,5.793,-12.317,-16.646,1.1649,100742.05
0.936,-0.0757,0.0938,3.841,7.378,0.732,0.9438,100741.7
0.8491,-0.0796,-0.123,-25.244,-9.39,-0.793,0.8617,100742.16
0.8706,-0.0625,-0.2778,-28.354,-15.244,1.829,0.916,100742.14
0.7944,-0.0483,-0.2822,-11.707,2.927,12.195,0.8445,100742.75
0.7295,-0.0435,-0.1226,3.659,16.951,15.122,0.741,100741.97
0.8555,-0.0327,-0.0933,-11.037,0.061,7.134,0.8612,100741.85
0.9883,-0.0244,-0.3726,-34.756,-20.732,1.646,1.0565,100742.53
0.9932,-0.0161,-0.3145,-27.134,-19.695,4.39,1.0419,100742.53
0.978,-0.042,-0.2729,-35.793,-23.537,-2.561,1.0163,100742.3
1.1699,-0.0825,-0.4663,-50.183,-35.244,-11.707,1.2621,100742.1
1.2085,-0.083,-0.4863,-37.988,-31.707,2.988,1.3053,100742.95
1.0605,-0.0469,-0.4473,-21.951,-23.293,20.793,1.152,100743.09
1.0903,-0.0835,-0.312,1.951,-18.476,23.171,1.1372,100743.57
1.0591,-0.1274,0.0059,20.671,5.0,27.134,1.0667,100743.56
0.9375,-0.1089,0.1841,2.134,16.463,25.61,0.9616,100743.94
0.9229,-0.0908,-0.0645,-36.707,3.354,13.049,0.9295,100743.09
0.9297,-0.0757,-0.188,-35.915,7.622,9.512,0.9515,100743.81
0.8438,-0.0918,-0.1626,-18.354,24.756,8.049,0.8642,100744.0
0.9839,-0.1401,-0.2539,-9.39,21.28,-1.829,1.0257,100743.89
0.7847,-0.123,-0.1313,19.939,33.293,15.061,0.805,100743.2
0.8174,-0.1396,-0.2275,6.341,16.524,8.78,0.8599,100743.77
0.8472,-0.1401,-0.3403,7.927,7.378,5.244,0.9237,100742.73
0.8413,-0.1299,-0.3213,20.671,14.329,-0.305,0.9099,100743.05
0.9614,-0.1714,-0.2778,29.695,15.671,-11.951,1.0153,100742.07
1.1055,-0.2095,-0.124,38.171,17.805,-16.402,1.132,100741.23
1.207,-0.2173,-0.1392,19.573,2.561,-16.159,1.2343,100741.56
1.1084,-0.2051,-0.3433,6.22,-12.073,-9.024,1.1783,100742.8
1.0386,-0.1743,-0.1909,19.512,-9.573,-5.61,1.0703,100743.1
0.9888,-0.123,-0.2671,6.89,-18.171,-8.659,1.0316,100742.97
1.0679,-0.1353,-0.4897,15.488,-18.537,-15.671,1.1826,100742.89
1.1094,-0.1538,-0.0396,65.183,7.012,-10.671,1.1207,100742.55
1.0205,-0.1196,0.272,50.427,12.683,-5.976,1.0629,100742.45
1.0034,-0.1016,-0.1548,1.22,-17.073,-9.39,1.0204,100742.25
1.0083,-0.1025,-0.1499,18.659,-12.5,-5.305,1.0245,100742.35
0.8481,-0.0962,0.1655,31.707,5.732,-0.305,0.8695,100741.43
0.8633,-0.0742,0.0117,-3.415,-7.073,-11.829,0.8665,100741.6
0.9956,-0.0439,-0.2969,-20.732,-20.061,-13.963,1.0399,100741.48
0.9785,-0.0498,-0.4224,-0.61,-11.585,4.146,1.0669,100741.76
0.7656,-0.0693,-0.2412,27.134,4.817,21.524,0.8057,100741.98
0.7378,-0.0942,-0.1895,22.622,-2.073,13.171,0.7675,100741.66
0.9692,-0.1182,-0.2847,7.927,-9.512,3.78,1.0171,100742.16
0.9238,-0.1362,-0.1963,4.085,2.561,12.073,0.9542,100742.01
1.0269,-0.1426,-0.2573,-19.878,-10.183,4.451,1.0682,100742.41
1.2573,-0.1621,-0.5205,-33.598,-21.829,3.415,1.3704,100742.45
1.1353,-0.1328,-0.4722,-6.341,-2.622,24.329,1.2367,100742.5
0.936,-0.1274,-0.0381,15.732,16.707,25.305,0.9454,100742.15
1.0762,-0.1558,0.0771,-15.61,7.866,0.915,1.0901,100742.78
1.2051,-0.1533,-0.2759,-47.805,-6.89,-6.768,1.2457,100742.73
0.9155,-0.1606,-0.2686,-20.732,12.805,9.939,0.9675,100742.58
0.6704,-0.1675,0.1309,12.5,34.146,13.598,0.7033,100742.72
0.7529,-0.1802,0.1616,-3.598,25.549,-5.244,0.7909,100743.7
1.0649,-0.2373,-0.061,-21.463,18.659,-19.634,1.0928,100743.41
1.106,-0.2051,-0.1113,-16.707,22.256,-5.793,1.1303,100742.71
0.7642,-0.1182,-0.2241,-14.878,22.134,12.378,0.8051,100742.44
0.8037,-0.1211,-0.3755,-1.037,16.159,4.512,0.8953,100742.48
0.9863,-0.1748,-0.2915,29.451,23.598,5.244,1.0433,100740.93
0.8438,-0.2119,-0.0356,42.378,32.073,12.561,0.8707,100741.21
1.0024,-0.2349,0.0327,15.244,6.707,-4.878,1.0301,100742.28
1.1743,-0.248,-0.3008,-13.537,-19.207,-16.951,1.2373,100743.08
1.1582,-0.21,-0.3022,2.866,-15.549,-15.366,1.2153,100743.23
1.1162,-0.1328,-0.1919,13.841,-15.915,-17.073,1.1403,100743.56
1.1714,-0.1685,-0.2778,20.671,-17.378,-23.354,1.2156,100743.34
1.188,-0.2222,0.1602,44.939,2.927,-15.793,1.2191,100743.29
0.9746,-0.1016,0.2588,0.488,-19.878,-10.244,1.0135,100743.12
1.0537,-0.0278,-0.3516,-43.354,-49.085,-21.463,1.1112,100742.14
1.0435,-0.0293,-0.1953,10.488,-18.78,-12.622,1.062,100742.0
0.8066,-0.0054,0.2656,35.183,2.744,-0.976,0.8493,100740.94
0.7773,-0.0146,-0.0171,-9.268,-13.049,-8.232,0.7777,100741.51
0.9121,-0.0225,-0.2764,-15.61,-20.0,-7.927,0.9533,100740.8
0.813,-0.001,-0.2007,4.451,-2.317,10.549,0.8374,100740.99
0.7183,0.001,-0.1958,3.171,2.5,13.354,0.7445,100741.52
0.9482,0.0024,-0.2656,-5.61,-16.22,4.146,0.9847,100741.65
1.04,0.0039,-0.4482,-11.585,-15.427,11.28,1.1325,100741.26
0.9575,-0.0391,-0.3965,3.902,-2.5,19.024,1.0371,100741.7
0.9717,-0.0879,-0.1777,5.61,-1.098,13.232,0.9917,100742.05
1.1855,-0.1333,-0.2642,-18.049,-13.354,6.646,1.2219,100741.09
1.1597,-0.1187,-0.3618,-23.963,-12.073,18.354,1.2206,100741.24
1.0859,-0.147,-0.2012,-10.366,4.817,18.415,1.1142,100741.34
1.187,-0.1953,-0.0986,-10.61,6.707,9.207,1.207,100742.4
1.0923,-0.1733,-0.1323,-18.902,6.098,11.951,1.1138,100741.98
0.9272,-0.1572,-0.1509,-14.024,10.488,16.402,0.9525,100742.4
0.8018,-0.1304,0.0586,-0.427,22.5,18.537,0.8144,100743.58
0.7368,-0.0991,0.084,-16.463,20.183,7.134,0.7482,100743.84
0.9956,-0.1416,-0.2075,-33.232,7.439,-9.512,1.0268,100743.79
0.9873,-0.1606,-0.1699,-9.878,23.11,0.732,1.0146,100743.26
0.7607,-0.0977,-0.0249,-0.61,29.695,8.171,0.7674,100742.76
0.8247,-0.0806,-0.2539,-14.146,12.439,-2.5,0.8667,100743.35
0.8823,-0.1138,-0.3276,1.768,10.061,-5.061,0.948,100743.17
0.8901,-0.1514,-0.2397,17.744,17.195,-7.805,0.9342,100743.66
1.0605,-0.2046,-0.3081,18.11,8.78,-17.561,1.1232,100743.15
1.2139,-0.2334,-0.3276,27.439,4.817,-16.768,1.2788,100743.37
1.1499,-0.2148,-0.1846,35.915,3.171,-9.512,1.1843,100742.93
1.1226,-0.1533,-0.1294,22.378,-15.183,-12.683,1.1403,100742.63
1.0469,-0.0752,-0.3052,8.476,-32.866,-14.146,1.093,100741.41
0.9961,-0.1079,-0.229,36.768,-19.451,-20.488,1.0278,100741.47
1.0693,-0.1475,0.2896,54.634,-4.207,-26.22,1.1176,100741.28
1.1611,-0.0957,0.0181,1.951,-19.329,-25.366,1.1652,100741.88
1.1919,-0.0737,-0.2466,2.378,-13.537,-12.256,1.2194,100741.85
0.9863,-0.0605,0.1187,35.671,9.878,6.89,0.9953,100741.54
0.8193,-0.061,0.084,8.293,0.732,8.232,0.8259,100741.83
0.8071,-0.0415,-0.124,-17.5,-9.756,6.646,0.8177,100742.77
0.7344,-0.0234,-0.2764,-20.427,-4.329,12.683,0.785,100742.48
0.7251,-0.0479,-0.2549,-0.915,5.793,15.366,0.7701,100742.65
0.8247,-0.0981,-0.0576,10.488,12.805,15.122,0.8325,100741.68
0.9062,-0.1128,-0.1094,-11.22,4.268,11.098,0.9198,100741.8
1.1768,-0.1138,-0.3286,-29.634,-10.366,8.72,1.2271,100742.75
1.0986,-0.1143,-0.312,-22.805,-4.573,23.78,1.1478,100743.48
1.0166,-0.085,-0.2617,-26.707,-9.756,23.659,1.0532,100743.27
1.1196,-0.103,-0.4453,-35.854,-26.646,17.622,1.2093,100743.37
1.0825,-0.0781,-0.4053,-15.366,-21.098,25.854,1.1585,100743.18
0.9683,-0.0962,-0.0039,9.878,4.146,24.695,0.973,100742.82
1.1934,-0.2109,0.0962,-10.488,6.768,3.171,1.2157,100742.92
1.2275,-0.2026,-0.1118,-31.037,3.78,6.768,1.2492,100742.37
0.8604,-0.1367,-0.0806,-24.939,12.561,19.756,0.8749,100742.09
0.8062,-0.123,-0.0234,-23.354,13.049,9.939,0.8158,100742.1
0.8481,-0.1323,-0.1172,-27.805,13.598,0.366,0.8664,100742.27
0.9868,-0.1768,-0.1606,-19.39,18.354,-7.195,1.0153,100742.38
1.0283,-0.1904,-0.2251,-6.951,19.39,-1.707,1.0698,100743.09
0.8164,-0.1543,-0.1992,11.707,21.951,11.037,0.8544,100742.89
0.7852,-0.1572,-0.1611,21.707,17.927,9.207,0.8168,100743.08
0.8584,-0.1831,-0.1567,22.317,11.159,4.451,0.8916,100743.2
0.8711,-0.1802,-0.1899,21.037,12.195,4.512,0.9096,100742.83
0.8677,-0.189,-0.1523,21.707,9.451,-2.012,0.901,100741.93
1.0054,-0.2246,-0.2622,16.098,-0.915,-17.866,1.063,100743.11
1.2144,-0.2646,-0.2148,28.11,0.732,-23.354,1.2613,100742.9
1.2412,-0.2676,-0.0938,26.341,-4.939,-16.829,1.2732,100743.2
1.0806,-0.2085,-0.1821,6.098,-18.537,-10.732,1.1155,100743.93
1.0015,-0.1323,-0.2339,3.902,-20.671,-15.122,1.0369,100744.13
1.1514,-0.2012,0.0859,33.293,-8.902,-26.89,1.172,100744.37
1.0869,-0.1626,-0.1152,6.524,-19.512,-13.659,1.105,100743.09
0.916,-0.1309,-0.0625,21.585,-7.256,3.963,0.9274,100743.12
0.7769,-0.1196,0.3223,27.683,7.073,4.573,0.8495,100743.41
0.9634,-0.1318,0.1113,-22.317,-9.512,-12.927,0.9787,100743.98
1.0444,-0.1289,-0.2783,-44.512,-20.061,-9.634,1.0885,100744.05
0.8511,-0.0928,-0.3154,-20.61,-2.744,9.512,0.9124,100743.48
0.7437,-0.082,-0.1821,1.159,8.049,16.463,0.77,100742.78
0.8135,-0.1035,-0.1831,0.0,3.049,12.256,0.8402,100743.41
0.9297,-0.1055,-0.2031,-9.329,1.402,10.427,0.9574,100744.34
0.9653,-0.1035,-0.2544,-20.915,-0.732,14.024,1.0036,100743.83
1.0176,-0.1001,-0.2959,-27.195,-6.524,12.622,1.0644,100743.05
1.0693,-0.1089,-0.3984,-28.476,-12.622,10.183,1.1463,100742.72
1.1367,-0.1475,-0.4033,-17.134,-13.171,9.268,1.2151,100743.45
1.1348,-0.1338,-0.3052,-9.207,-16.402,17.317,1.1827,100744.13
1.0181,-0.1113,-0.2354,-4.756,-8.537,26.89,1.0508,100743.67
0.9644,-0.1631,0.0059,3.476,4.817,20.183,0.9781,100744.41
1.1401,-0.2153,0.082,-14.817,5.854,1.524,1.1632,100743.75
1.1191,-0.1841,-0.0659,-37.927,0.0,1.341,1.1361,100744.24
0.8203,-0.1201,-0.1855,-37.561,6.159,11.159,0.8496,100744.24
0.7822,-0.1133,-0.1216,-22.866,13.171,4.329,0.7997,100743.62
0.8838,-0.1353,-0.2295,-18.415,16.037,-3.293,0.9231,100743.52
0.916,-0.1665,-0.2686,-0.183,23.78,-1.951,0.969,100743.7
0.9155,-0.1904,-0.0557,18.537,24.695,2.012,0.9368,100742.98
0.8677,-0.1821,-0.0791,6.037,15.549,3.72,0.8901,100743.65
0.8643,-0.1929,-0.1987,1.28,9.39,1.524,0.9075,100743.17
0.9043,-0.2085,-0.1509,10.61,14.207,-5.366,0.9402,100743.69
0.9824,-0.2314,-0.209,10.122,9.146,-15.915,1.0307,100743.69
1.1567,-0.2295,-0.0967,20.793,5.854,-22.256,1.1832,100743.94
1.1929,-0.2036,-0.0732,13.72,-3.598,-15.244,1.2123,100743.12
1.0371,-0.1401,-0.2227,5.488,-13.598,-8.963,1.07,100743.05
1.1582,-0.1855,-0.2515,25.732,-12.927,-18.354,1.1996,100743.43
1.2339,-0.1997,0.0474,50.976,5.122,-16.037,1.2508,100743.73
1.042,-0.1011,0.1753,25.732,-3.293,-10.61,1.0615,100743.84
1.1069,-0.022,-0.1318,-13.78,-25.915,-16.829,1.115,100743.31
1.0801,-0.0181,-0.1914,-5.427,-10.732,-1.098,1.0971,100742.8
0.71,0.0063,0.0063,6.524,4.268,12.927,0.71,100743.05
0.6592,0.0269,-0.0752,-12.012,-9.756,-1.22,0.664,100742.72
0.7134,0.02,-0.2466,-13.963,-17.683,-6.22,0.7551,100742.84
0.6992,-0.0005,-0.1572,8.78,5.488,-4.756,0.7167,100742.32
0.9072,-0.042,-0.0396,11.829,12.195,-6.89,0.9091,100742.77
0.9624,-0.0479,-0.1143,-8.963,3.415,-0.854,0.9703,100743.13
1.0859,0.0029,-0.3213,-31.768,-6.28,0.122,1.1325,100743.16
1.1113,-0.0005,-0.5801,-33.598,-7.5,6.707,1.2536,100743.67
1.207,-0.0396,-0.5244,-9.024,-2.805,10.305,1.3166,100743.43
1.2739,-0.064,-0.397,7.134,-4.695,20.488,1.3359,100743.39
1.0312,-0.0522,-0.1748,15.183,5.793,32.927,1.0473,100743.84
0.9937,-0.0938,0.1245,10.366,12.134,16.524,1.0058,100743.9
1.208,-0.1421,0.1172,-23.293,2.317,-5.427,1.222,100743.6
1.0918,-0.1313,-0.0508,-39.085,4.268,1.463,1.1008,100742.27
0.8184,-0.1396,-0.0381,-26.524,4.512,8.78,0.8311,100741.41
0.8247,-0.1519,0.0913,-15.183,13.354,0.427,0.8435,100741.98
0.9146,-0.1733,-0.0059,-20.427,19.512,-6.951,0.9309,100742.55
0.9912,-0.1865,-0.0581,-16.524,27.256,-5.61,1.0103,100742.85
0.8516,-0.1475,-0.1011,-12.744,30.915,4.817,0.8701,100742.33
0.7686,-0.1157,-0.1504,-7.134,22.683,4.573,0.7916,100742.93
0.9082,-0.1143,-0.1733,1.768,21.098,-0.183,0.9316,100741.91
0.9678,-0.1255,-0.1934,8.963,28.354,1.89,0.9948,100742.76
0.9243,-0.1206,-0.1841,13.049,22.866,0.915,0.9502,100742.27
0.9854,-0.1265,-0.1987,15.915,10.122,-10.061,1.0131,100742.16
1.1372,-0.1396,-0.1724,22.195,-3.049,-20.427,1.1586,100743.52
1.2563,-0.1226,-0.0806,27.927,-24.207,-18.598,1.2649,100743.56
1.0903,-0.0791,-0.165,24.695,-31.768,-11.22,1.1056,100743.74
1.1963,-0.1304,-0.0806,44.207,-18.232,-17.744,1.2061,100743.62
1.208,-0.1567,0.2524,52.988,-5.61,-13.171,1.244,100742.67
0.9946,-0.0586,0.1885,14.695,-19.573,-5.976,1.014,100742.94
0.896,-0.022,-0.001,-5.915,-29.756,-10.244,0.8963,100742.66
1.0845,-0.0098,0.1128,0.183,-14.085,-13.415,1.0904,100743.18
0.9902,-0.0049,-0.0005,-15.244,-11.646,-0.732,0.9902,100742.7
0.8433,-0.0049,-0.2305,-22.134,-12.012,5.854,0.8742,100742.72
0.7588,0.0454,-0.1973,-8.963,-11.22,11.707,0.7853,100743.21
0.7725,0.0493,-0.2979,-7.988,-12.317,13.049,0.8294,100743.37
0.8389,0.0039,-0.3062,5.427,0.061,15.305,0.893,100743.96
0.9517,-0.0049,-0.1875,14.695,1.951,21.524,0.97,100743.53
0.9126,0.0151,-0.2026,3.171,-4.939,25.976,0.9349,100743.34
1.0317,-0.0083,-0.3052,-9.146,-14.878,16.89,1.076,100743.93
1.147,-0.0718,-0.2773,-3.963,-13.11,17.317,1.1822,100743.28
1.1401,-0.0898,-0.167,0.244,-6.463,22.744,1.1558,100742.78
1.1167,-0.1284,-0.1016,0.183,-1.463,16.829,1.1286,100742.92
1.2646,-0.1963,-0.0327,-4.268,-1.707,0.976,1.2802,100743.38
1.2705,-0.21,-0.0103,-8.841,-9.573,1.951,1.2878,100743.96
0.9077,-0.1738,0.0229,-17.012,-6.402,12.439,0.9245,100743.43
0.7422,-0.168,-0.0552,-24.451,-7.866,3.78,0.763,100743.28
0.8726,-0.1763,-0.0366,-22.012,-2.561,-10.0,0.8909,100743.27
0.9736,-0.2061,-0.1626,-26.768,11.707,-10.61,1.0084,100743.19
0.8564,-0.1875,-0.228,-13.537,20.671,1.524,0.9059,100743.45
0.7397,-0.1514,-0.1743,4.634,25.488,7.134,0.7749,100743.03
0.8184,-0.1636,-0.2681,8.415,22.866,1.89,0.8765,100743.34
0.8877,-0.1699,-0.2827,19.573,23.598,1.402,0.947,100743.56
0.8457,-0.1572,-0.2314,28.293,22.561,0.0,0.8908,100744.48
1.0195,-0.168,-0.1948,30.366,16.585,-11.646,1.0515,100744.66
1.1426,-0.1763,-0.1245,28.659,2.378,-16.341,1.1628,100744.3
1.083,-0.123,-0.2441,16.037,-18.598,-18.049,1.117,100743.43
1.0854,-0.0991,-0.2983,31.28,-17.622,-26.707,1.1301,100743.03
1.3901,-0.1865,0.1152,58.415,3.476,-37.378,1.4073,100743.35
1.186,-0.123,0.2446,25.488,-7.866,-18.11,1.2172,100743.59
0.8794,-0.0278,-0.0557,-21.463,-36.89,-12.134,0.8816,100744.34
1.0518,-0.0386,-0.1523,-16.951,-36.707,-20.671,1.0634,100744.21
1.02,-0.0146,0.0249,-2.561,-16.402,-11.951,1.0204,100743.72
0.8882,-0.0225,-0.1216,-21.829,-15.427,-8.049,0.8967,100743.74
0.9131,-0.0225,-0.2554,-19.634,-9.268,-4.329,0.9484,100743.77
0.8145,0.0225,-0.1626,-1.646,6.037,12.195,0.8308,100743.53
0.6855,0.0195,-0.1631,-1.22,4.817,18.537,0.7049,100743.95
0.8545,-0.0029,-0.2334,-2.927,0.427,15.122,0.8858,100743.44
0.8853,-0.0186,-0.2295,1.646,6.829,22.561,0.9147,100744.27
0.9717,-0.0259,-0.1914,-6.89,-0.244,21.28,0.9907,100744.39
1.1143,-0.0181,-0.3369,-28.659,-17.622,17.317,1.1642,100744.12
1.1138,-0.0425,-0.2598,4.085,-3.78,33.72,1.1444,100743.79
1.0317,-0.0659,0.063,9.817,11.098,25.61,1.0358,100743.66
1.2686,-0.1426,-0.1626,-18.354,13.598,4.085,1.2869,100744.16
1.0859,-0.1504,-0.0674,-1.89,21.89,12.927,1.0984,100743.58
0.792,-0.1074,0.1348,-3.841,26.28,13.293,0.8105,100743.9
0.7573,-0.1157,0.0171,-24.756,21.037,-4.695,0.7663,100743.87
0.9941,-0.1421,-0.0044,-28.963,19.146,-20.488,1.0043,100744.58
1.0063,-0.1782,-0.1992,-35.122,16.463,-15.976,1.0412,100744.76
0.8687,-0.1606,-0.2393,-16.951,21.951,-5.061,0.9152,100745.01
0.8179,-0.1265,-0.1206,3.659,25.061,0.61,0.8363,100745.07
0.8462,-0.1265,-0.1753,2.378,14.39,-1.037,0.8734,100745.12
0.9985,-0.1167,-0.2905,5.488,4.756,-3.78,1.0465,100744.05
1.0156,-0.1094,-0.3086,23.293,11.646,1.037,1.0671,100744.6
0.98,-0.1235,-0.1602,42.317,12.866,-1.28,1.0006,100744.54
1.0454,-0.1338,-0.127,40.61,2.622,-12.195,1.0616,100744.75
1.1333,-0.123,-0.042,36.646,-5.976,-19.024,1.1407,100744.51
1.1187,-0.0845,-0.1445,20.549,-16.951,-20.793,1.1311,100744.2
1.1982,-0.1177,-0.1436,28.841,-13.293,-26.098,1.2125,100743.62
1.2817,-0.1353,0.0938,35.061,-20.0,-22.439,1.2923,100743.3
1.1689,-0.0615,-0.0249,10.732,-33.354,-9.817,1.1708,100743.3
1.0708,-0.0234,-0.1299,12.317,-20.427,0.305,1.0789,100743.4
0.978,-0.0259,0.0757,32.744,10.061,6.524,0.9813,100743.38
0.8599,-0.0518,0.3481,24.573,20.488,8.659,0.9291,100744.08
0.7134,-0.0454,0.2686,-23.598,-4.695,6.89,0.7636,100744.47
0.7578,-0.0146,-0.1553,-60.549,-19.207,2.744,0.7737,100743.54
0.7603,-0.0332,-0.2812,-38.415,-1.707,13.598,0.8113,100742.74
0.7607,-0.0542,-0.1357,-8.78,17.866,22.012,0.7747,100743.12
0.8745,-0.0356,-0.0566,-12.866,8.415,23.11,0.8771,100742.93
0.9204,-0.0234,-0.2378,-33.476,-0.976,20.244,0.9509,100743.38
1.1807,-0.0366,-0.3213,-30.793,4.146,13.902,1.2241,100743.72
1.3062,-0.0713,-0.1392,-20.122,-2.683,17.5,1.3155,100743.72
1.3374,-0.0439,-0.2305,-38.415,-22.744,22.866,1.3578,100743.34
1.0771,-0.0645,-0.3384,-27.927,-10.671,30.61,1.1309,100743.2
1.1196,-0.1411,0.0469,2.256,3.841,13.841,1.1295,100743.34
1.2158,-0.1743,0.0933,-17.622,2.195,3.049,1.2318,100743.45
0.9033,-0.1577,0.0151,-34.939,0.915,10.732,0.9171,100743.66
0.7651,-0.1396,-0.021,-39.207,-5.976,2.439,0.7781,100743.3
0.8857,-0.1577,-0.1191,-36.159,-10.244,-9.268,0.9075,100743.3
0.9536,-0.2036,-0.1118,-17.683,7.866,-8.72,0.9815,100743.94
0.9009,-0.1899,-0.0269,-7.012,24.39,-1.707,0.9211,100742.42
0.8525,-0.1562,-0.1084,-13.841,10.488,2.073,0.8735,100743.49
0.8359,-0.1348,-0.1416,-7.805,5.183,6.402,0.8585,100742.82
0.7969,-0.0781,0.0039,0.671,9.878,9.207,0.8007,100743.93
0.8774,-0.0615,-0.1465,-16.951,0.183,1.159,0.8917,100743.77
0.9858,-0.0811,-0.3926,-15.061,-1.402,-2.134,1.0642,100743.66
0.9214,-0.1162,-0.3184,16.463,16.463,-0.915,0.9817,100743.33
0.9951,-0.1567,-0.1938,36.341,18.415,-13.049,1.0259,100742.94
1.2188,-0.1714,-0.0405,34.817,2.439,-22.378,1.2314,100744.02
1.2749,-0.126,-0.1499,9.939,-16.829,-22.012,1.2899,100743.21
1.2466,-0.1543,-0.3164,18.476,-16.341,-22.439,1.2953,100742.62
1.1885,-0.1709,0.1538,53.902,0.61,-19.939,1.2105,100742.27
1.0688,-0.1099,0.1104,16.037,-12.256,-19.512,1.0801,100742.41
0.9912,-0.0684,-0.2012,-3.659,-30.122,-20.305,1.0137,100742.75
0.9653,-0.0796,0.0122,25.549,-9.146,-14.695,0.9687,100743.48
0.8613,-0.082,0.2129,25.183,5.0,-8.659,0.891,100743.08
0.8052,-0.0522,0.0293,-6.22,-9.573,-7.805,0.8074,100742.65
0.8423,-0.0361,-0.3013,-20.854,-16.707,-3.476,0.8953,100741.95
0.8311,-0.0425,-0.2178,1.524,5.671,10.671,0.8602,100742.16
0.7329,-0.0615,-0.0967,0.305,11.585,17.561,0.7418,100741.46
0.854,-0.0586,-0.2485,-25.488,-10.793,10.244,0.8914,100742.05
0.9888,-0.04,-0.4004,-27.073,-18.902,12.378,1.0675,100743.09
0.9897,-0.0425,-0.2407,-9.207,-4.634,16.829,1.0195,100743.16
1.1577,-0.0845,-0.2002,-16.341,-6.646,9.695,1.1779,100743.2
1.3052,-0.1167,-0.2671,-26.89,-10.732,12.256,1.3373,100743.73
1.186,-0.0742,-0.3013,-32.256,-16.768,25.549,1.2259,100742.89
1.0464,-0.0474,-0.3511,-28.293,-18.354,27.195,1.1047,100743.84
1.1421,-0.1333,-0.1274,-13.72,-1.585,15.305,1.1569,100743.7
1.1484,-0.1636,-0.0161,-19.024,3.659,11.829,1.1601,100742.62
0.8511,-0.1021,-0.0547,-49.268,-2.134,-1.463,0.8589,100743.38
0.8818,-0.0923,-0.1421,-47.195,4.146,-6.646,0.898,100742.25
0.9521,-0.1074,-0.2065,-35.976,9.756,-8.415,0.9802,100741.93
0.8721,-0.0938,-0.2832,-20.854,16.159,1.341,0.9217,100742.28
0.7505,-0.084,-0.186,2.134,22.988,8.293,0.7778,100743.41
0.8164,-0.1045,-0.1963,5.061,17.561,4.634,0.8461,100743.88
0.8433,-0.1196,-0.2759,6.768,16.585,4.329,0.8953,100743.75
0.937,-0.1099,-0.2183,13.963,19.512,-0.976,0.9683,100743.52
1.1826,-0.0942,-0.3057,6.037,12.622,-9.329,1.2251,100744.1
1.1128,-0.0957,-0.3911,5.427,1.829,-11.402,1.1834,100744.16
1.1748,-0.0229,-0.1885,15.488,-9.756,-21.585,1.19,100744.09
1.1509,0.0117,-0.3457,4.451,-22.683,-22.378,1.2017,100744.39
1.2002,-0.0776,-0.2266,34.268,-16.341,-23.841,1.2239,100744.4
1.0659,-0.104,0.2271,50.793,-2.134,-19.39,1.0948,100744.36
0.8862,-0.0229,0.1089,3.11,-29.207,-31.22,0.8932,100744.97
1.1157,0.0127,-0.3408,-18.598,-49.695,-45.549,1.1667,100744.31
1.209,-0.0132,-0.3354,27.927,-8.72,-17.073,1.2547,100743.95
0.7827,-0.021,0.0601,69.634,38.232,22.378,0.7853,100743.92
0.6035,-0.0122,0.2178,43.11,15.183,18.354,0.6417,100743.66
0.731,-0.0166,-0.0903,-4.756,-16.768,2.439,0.7367,100743.34
0.8315,-0.0298,-0.2812,-7.622,-3.415,6.707,0.8783,100743.7
0.8657,-0.0142,-0.1128,11.585,14.146,19.573,0.8732,100743.6
0.9131,0.0259,-0.0991,-5.854,4.512,22.988,0.9188,100743.65
1.2017,0.0195,-0.4829,-17.073,-18.171,10.671,1.2952,100743.44
1.2368,-0.0615,-0.3057,6.463,-1.28,21.829,1.2755,100743.52
1.146,-0.0679,-0.2192,1.585,-8.11,26.829,1.1688,100743.83
1.1758,-0.1055,-0.2319,-6.463,-14.085,17.5,1.2031,100743.44
1.1709,-0.144,-0.1646,-6.402,-8.415,12.683,1.1911,100743.4
1.0552,-0.1299,-0.1265,-10.732,-1.098,12.439,1.0706,100742.63
0.9233,-0.1328,-0.1416,-12.195,5.61,10.976,0.9435,100742.3
0.8447,-0.1323,-0.0225,-3.963,18.415,9.146,0.8553,100743.52
0.7568,-0.1299,0.0957,-12.805,20.671,0.671,0.7738,100743.09
0.9146,-0.1436,-0.1631,-38.049,8.11,-13.659,0.94,100743.03
0.8501,-0.1362,-0.314,-27.439,12.927,-5.061,0.9164,100743.09
0.6968,-0.1074,-0.2061,-1.098,19.573,1.707,0.7345,100742.65
0.7705,-0.1206,-0.1611,3.841,10.122,-6.402,0.7964,100742.82
0.8853,-0.1074,-0.2192,-0.732,-1.28,-10.488,0.9183,100742.84
0.9609,-0.0781,-0.4082,-3.415,-2.744,-10.976,1.047,100743.33
1.082,-0.1084,-0.5483,14.39,1.28,-14.207,1.2179,100743.45
1.0903,-0.1201,0.0029,43.963,5.427,-11.707,1.0969,100743.77
1.1104,-0.0356,-0.2617,6.89,-21.829,-18.415,1.1413,100743.27
1.2661,-0.0488,-0.4946,18.841,-18.049,-24.512,1.3602,100743.03
1.2305,-0.0894,-0.0312,63.78,1.707,-14.573,1.2341,100743.22
1.04,-0.064,0.0933,48.232,-1.89,-5.732,1.0462,100743.87
0.9268,-0.0503,-0.04,30.061,-15.122,-8.841,0.929,100742.87
0.9365,-0.0269,0.084,34.329,-15.61,-15.061,0.9407,100743.48
0.9019,-0.0361,0.0874,14.329,-9.512,-12.073,0.9068,100743.3
0.7954,0.001,-0.3076,-0.488,-9.634,-5.427,0.8528,100744.41
0.9814,0.0,-0.3687,9.451,-1.585,2.927,1.0484,100744.5
0.8159,-0.0181,-0.3145,19.634,12.073,23.415,0.8746,100743.84
0.8555,-0.0142,-0.2134,13.354,4.451,20.854,0.8818,100744.34
0.9546,0.0005,-0.3608,-8.293,-10.915,14.939,1.0205,100743.84
1.104,0.0039,-0.4907,-12.012,-17.744,15.427,1.2082,100744.18
1.1011,-0.0303,-0.3838,-0.488,-5.0,21.463,1.1664,100743.85
1.1719,-0.0317,-0.2637,-2.622,-11.951,21.28,1.2016,100742.98
1.1519,-0.0156,-0.374,-8.171,-25.793,20.854,1.2112,100743.3
1.0708,-0.083,-0.2129,9.024,-8.293,16.22,1.0949,100742.56
1.0396,-0.1265,-0.0098,8.354,4.207,7.256,1.0473,100742.5
0.96,-0.1274,0.043,-13.476,2.195,2.439,0.9693,100743.09
0.8735,-0.146,-0.1948,-36.22,-1.89,-1.707,0.9068,100743.51
0.7993,-0.1436,-0.1367,-20.244,14.39,-2.195,0.8235,100742.97
0.8198,-0.147,-0.0933,-15.671,27.073,-10.061,0.8381,100743.3
1.0273,-0.1797,-0.2427,-21.768,21.098,-18.841,1.0708,100743.36
0.9297,-0.1621,-0.2715,-6.22,27.805,-3.11,0.982,100743.84
0.7188,-0.1343,-0.1396,10.61,39.512,8.232,0.7444,100744.45
0.7861,-0.1465,-0.1562,5.061,26.037,-1.037,0.8148,100745.16
0.896,-0.1396,-0.2979,-2.622,18.841,-6.951,0.9545,100745.55
0.9595,-0.1255,-0.3892,2.256,20.305,-8.049,1.043,100745.62
1.0698,-0.1401,-0.4414,14.878,21.463,-11.463,1.1658,100744.43
1.1626,-0.1279,-0.2788,31.951,22.195,-8.354,1.2024,100744.89
1.02,-0.064,-0.1943,28.293,-6.402,-4.329,1.0403,100744.99
1.1826,-0.0269,-0.3115,26.768,-26.159,-23.902,1.2233,100743.73
1.541,-0.1416,-0.0435,59.085,5.122,-25.976,1.5481,100744.11
1.1587,-0.062,0.4443,62.927,25.915,6.89,1.2425,100743.67
0.7256,0.0356,0.1846,4.634,6.768,4.329,0.7495,100743.09
1.1167,0.0156,-0.1582,-9.634,1.585,-19.207,1.128,100743.62
1.0532,-0.02,0.0181,16.646,24.756,0.183,1.0536,100743.31
0.7744,-0.0059,0.1118,3.963,34.451,12.012,0.7825,100743.8
0.7144,0.0288,-0.0449,-26.22,22.134,5.671,0.7163,100744.03
0.731,0.0498,-0.1738,-35.61,8.11,1.646,0.753,100743.35
0.7734,0.0371,-0.168,-26.829,9.085,2.012,0.7923,100744.18
0.9512,0.0122,-0.0967,-22.683,13.78,2.439,0.9562,100743.59
1.064,0.0176,-0.1685,-24.878,0.671,9.939,1.0774,100743.15
1.0981,0.0498,-0.2217,-18.902,-10.122,14.512,1.1214,100742.56
1.2236,0.001,-0.2188,-5.549,-7.256,14.573,1.243,100742.63
1.2002,-0.0166,-0.0132,10.427,3.598,21.89,1.2004,100741.96
1.1201,-0.0151,0.0933,4.329,7.683,15.915,1.1241,100742.06
1.2036,-0.0928,0.0986,-5.854,-2.256,-0.305,1.2112,100741.64
1.1318,-0.1191,0.1167,-10.183,-2.317,-2.805,1.1441,100741.43
0.8911,-0.1123,0.1265,-16.037,4.329,-2.561,0.907,100742.01
0.8838,-0.1357,0.0542,-22.012,1.159,-10.488,0.8958,100742.59
0.9438,-0.1719,0.0254,-18.354,6.341,-11.22,0.9597,100743.38
0.9482,-0.1807,0.0596,-14.329,16.829,-8.659,0.9671,100742.5
0.8989,-0.166,-0.0215,-18.841,7.439,-3.537,0.9144,100742.84
0.7515,-0.1226,-0.124,-13.293,-2.683,5.061,0.7714,100743.58
0.7881,-0.1157,-0.1416,-0.915,-10.549,2.134,0.809,100743.5
0.9375,-0.1182,-0.0757,10.61,-3.537,0.0,0.9479,100744.43
0.9634,-0.0884,-0.0986,11.22,-9.634,5.061,0.9724,100744.27
1.0508,-0.1021,-0.2671,15.0,-11.524,1.707,1.089,100744.15
1.1089,-0.1123,-0.0986,43.841,-4.207,1.89,1.1189,100744.07
1.043,-0.106,0.062,43.232,-6.829,-2.5,1.0502,100744.5
1.1133,-0.0605,-0.1426,22.5,-23.476,-19.39,1.124,100744.2
1.4634,-0.1294,-0.1685,34.39,-22.988,-30.793,1.4787,100744.1
1.2905,-0.1035,0.0879,49.756,-7.012,-6.402,1.2977,100743.66
0.8862,-0.0249,0.1411,30.366,-9.207,5.427,0.8977,100743.57
0.9829,-0.0576,0.0288,15.183,-14.024,-8.72,0.985,100743.13
1.0928,-0.0562,0.1343,17.805,0.854,-4.878,1.1024,100743.16
0.8462,-0.0479,0.0391,1.28,7.195,12.073,0.8484,100743.68
0.6787,-0.0176,-0.0483,-4.634,-5.061,14.329,0.6807,100744.2
0.7388,-0.0034,-0.1177,-6.037,-12.012,11.585,0.7481,100743.96
0.6694,-0.0146,-0.1431,-5.305,-0.305,14.878,0.6847,100743.43
0.8608,-0.0518,-0.1665,-9.451,1.22,7.805,0.8783,100744.02
1.0908,-0.0605,-0.2842,-16.037,-11.951,9.085,1.1289,100743.95
1.0718,-0.0522,-0.2832,-12.927,-5.427,18.293,1.1098,100743.3
1.1919,-0.0913,-0.2622,-11.585,-9.451,18.11,1.2238,100743.91
1.2725,-0.0957,-0.2339,-12.317,-15.976,25.488,1.2973,100743.27
1.0547,-0.0483,-0.2422,-13.293,-14.695,33.11,1.0832,100742.67
1.1123,-0.0894,0.0308,0.549,2.622,15.976,1.1163,100743.2
1.2715,-0.1665,0.1694,-11.341,7.439,-0.732,1.2935,100742.88
1.0742,-0.147,0.0195,-33.11,0.915,3.232,1.0844,100742.98
0.8208,-0.1484,-0.041,-28.354,5.549,8.72,0.8351,100742.8
0.7192,-0.1494,0.1001,-21.463,4.817,0.244,0.7414,100743.91
0.9951,-0.1621,-0.0591,-37.134,3.537,-17.744,1.01,100744.26
1.0537,-0.1855,-0.2437,-30.122,12.5,-6.951,1.0973,100744.15
0.7021,-0.1528,-0.0918,2.012,27.561,15.061,0.7244,100744.3
0.6357,-0.1313,0.0083,6.159,26.098,8.11,0.6492,100744.92
0.8252,-0.144,-0.1191,-6.585,7.988,-6.098,0.8461,100744.89
0.9648,-0.1484,-0.209,-6.89,6.707,-8.232,0.9983,100745.23
0.9854,-0.1353,-0.3501,-1.22,15.183,-7.378,1.0544,100745.88
1.1338,-0.1494,-0.4238,19.573,10.366,-12.195,1.2196,100745.6
1.1963,-0.1758,-0.1943,49.146,13.293,-6.951,1.2247,100745.42
1.082,-0.1768,0.0698,47.134,3.11,-5.0,1.0986,100745.27
1.0601,-0.1172,-0.1318,10.427,-27.195,-18.354,1.0746,100744.89
1.3926,-0.1382,-0.2329,19.512,-30.122,-32.073,1.4187,100744.37
1.2402,-0.1274,0.1055,44.634,-9.878,-8.232,1.2512,100744.23
0.8228,-0.0513,0.0518,24.024,-13.841,3.049,0.826,100743.76
1.0,-0.0767,-0.0415,20.854,-25.122,-14.695,1.0038,100743.4
1.0815,-0.1006,0.1289,32.073,5.244,-8.354,1.0938,100743.26
0.769,-0.0991,0.1855,14.268,19.573,5.305,0.7973,100743.66
0.728,-0.0791,-0.062,-12.866,-4.207,-0.61,0.7349,100743.07
0.8252,-0.0562,-0.1924,-11.098,-0.793,0.549,0.8492,100743.15
0.6855,-0.0552,-0.0835,0.976,15.671,11.768,0.6928,100743.55
0.8438,-0.0737,-0.0571,-12.927,7.195,3.415,0.8489,100744.11
1.082,-0.0679,-0.1431,-32.5,-9.329,3.415,1.0936,100743.9
1.0874,-0.0498,-0.2358,-40.671,-6.707,12.378,1.1138,100743.59
1.2148,-0.04,-0.2476,-37.622,-11.707,12.378,1.2405,100744.25
1.2661,-0.0557,-0.2876,-33.049,-17.866,19.329,1.2996,100744.62
1.1626,-0.1191,-0.0269,0.244,-8.11,2.866,1.169,100744.41
1.3228,-0.1543,0.1055,-0.915,4.878,-6.402,1.3359,100743.88
0.9385,-0.1201,0.103,-15.122,20.244,10.305,0.9517,100743.73
0.7476,-0.1162,0.0796,-25.427,5.671,1.768,0.7607,100744.71
1.0034,-0.1436,0.0044,-28.902,-4.817,-12.256,1.0136,100744.35
0.9473,-0.1396,0.0405,-23.049,13.659,-3.354,0.9584,100743.85
0.8896,-0.1226,-0.1079,-28.415,10.122,0.122,0.9045,100743.46
0.7788,-0.1318,-0.2231,-15.427,9.207,8.354,0.8208,100744.27
0.7871,-0.147,-0.0269,8.354,12.988,9.207,0.8012,100743.77
0.8726,-0.1362,0.0034,-3.841,0.427,4.329,0.8831,100744.02
0.9399,-0.1216,-0.29,-24.451,-5.61,1.463,0.9912,100743.96
1.0059,-0.1157,-0.4346,-10.549,-5.732,-0.305,1.1018,100744.29
1.0303,-0.1279,-0.3564,18.537,5.915,-2.927,1.0977,100744.15
1.0571,-0.147,-0.1416,38.659,10.732,-6.707,1.0766,100743.69
1.1021,-0.1548,0.0767,32.317,-2.927,-12.927,1.1155,100744.23
1.1533,-0.1245,-0.1772,-1.89,-23.72,-19.146,1.1735,100744.73
1.2612,-0.1733,-0.3638,11.402,-22.012,-22.195,1.324,100745.11
1.2334,-0.1743,0.085,52.622,-5.61,-5.244,1.2485,100744.31
0.8896,-0.1226,0.2192,34.817,-5.061,6.951,0.9244,100743.93
0.9204,-0.1265,0.0996,11.524,-13.232,-10.427,0.9344,100743.77
1.085,-0.1162,0.1431,5.854,1.951,-15.976,1.1005,100743.79
0.8281,-0.0796,0.085,-12.195,10.732,1.585,0.8363,100743.79
0.5879,-0.0171,-0.1182,-32.561,6.037,2.5,0.5999,100743.53
0.7769,-0.0073,-0.3555,-31.707,-2.256,-8.72,0.8544,100742.86
0.8667,-0.0518,-0.1846,1.829,16.768,2.622,0.8876,100742.87
0.9053,-0.0654,0.123,3.902,26.22,10.488,0.9159,100742.34
1.0132,-0.0532,-0.0908,-37.073,-5.0,5.305,1.0186,100742.94
1.1406,-0.0391,-0.3257,-48.963,-15.366,4.268,1.1869,100743.05
1.2178,-0.0352,-0.3926,-35.915,-9.634,7.683,1.28,100743.11
1.3555,-0.0469,-0.333,-19.939,-12.256,16.585,1.3966,100743.16
1.0527,-0.0068,-0.2407,-8.293,-12.622,36.707,1.0799,100743.44
0.999,-0.0142,-0.1304,3.171,-9.939,26.524,1.0076,100744.13
1.1562,-0.1592,0.0659,14.024,2.561,10.0,1.169,100743.55
1.1318,-0.166,0.3926,5.549,14.512,7.317,1.2094,100743.98
0.8906,-0.0967,0.1899,-45.61,5.366,6.646,0.9158,100743.8
0.8218,-0.103,-0.1357,-61.159,-6.951,-4.512,0.8393,100743.91
0.8779,-0.0972,-0.043,-38.293,6.341,-13.72,0.8843,100743.76
1.001,-0.1113,-0.1357,-34.878,12.561,-19.329,1.0163,100743.14
1.0142,-0.124,-0.2236,-23.11,10.854,-10.244,1.0459,100743.3
0.7476,-0.1084,-0.1021,1.28,23.659,8.049,0.7622,100742.55
0.6978,-0.1045,-0.0322,6.402,20.0,5.366,0.7063,100742.24
0.8862,-0.1123,-0.2119,3.78,11.402,1.646,0.9181,100742.87
0.834,-0.0767,-0.0459,18.78,18.659,5.0,0.8388,100742.36
0.979,-0.0571,-0.21,1.89,1.585,-12.134,1.0029,100743.47
1.1714,-0.0571,-0.4072,13.963,-1.951,-17.744,1.2415,100743.55
1.1934,-0.0776,-0.0913,51.585,10.976,-11.524,1.1994,100744.32
1.1655,-0.0649,-0.0107,38.659,-6.341,-13.415,1.1674,100745.05
1.04,0.0098,-0.3203,17.256,-31.768,-20.549,1.0883,100744.85
1.2456,-0.022,-0.3843,45.671,-25.366,-35.732,1.3037,100744.09
1.1138,-0.0977,0.3569,64.634,-10.305,-7.988,1.1736,100744.02
0.7603,-0.0933,0.0493,25.732,-17.744,-5.549,0.7675,100743.46
0.9077,-0.0479,0.1909,30.793,-3.293,-34.146,0.9288,100743.79
1.1929,0.0088,0.272,4.573,12.378,-32.073,1.2235,100744.16
0.8237,0.0366,-0.1562,-34.756,-4.207,6.402,0.8392,100744.18
0.6304,0.0688,-0.332,-24.329,-11.341,17.561,0.7158,100744.93
0.6621,0.0518,-0.2241,4.085,-0.305,18.171,0.7009,100744.16
0.8374,0.0112,-0.0464,7.805,1.28,17.256,0.8388,100743.93
0.981,-0.0381,-0.1738,-14.878,-11.28,21.341,0.997,100743.53
1.0142,-0.0308,-0.2461,-16.707,-10.305,21.768,1.044,100744.2
1.1992,0.0059,-0.2109,-14.146,-11.585,15.122,1.2176,100744.94
1.2812,0.0039,-0.3647,-20.793,-13.659,18.78,1.3322,100744.66
1.2065,0.0137,-0.3091,-10.122,-8.841,28.476,1.2456,100744.08
0.979,0.063,-0.251,-5.427,-13.476,32.866,1.0126,100744.25
0.9912,-0.0063,-0.1523,2.073,-3.659,17.195,1.0029,100744.51
1.1675,-0.0835,0.1284,1.098,3.11,-0.854,1.1775,100744.7
0.9634,-0.0781,0.0649,-28.415,0.488,-2.134,0.9687,100744.48
0.8965,-0.0942,-0.0825,-34.756,0.915,-10.854,0.9052,100744.55
1.0327,-0.1001,-0.0371,-22.195,5.366,-15.732,1.0382,100744.47
1.0034,-0.0757,-0.1167,-20.0,5.549,-10.671,1.013,100743.69
0.937,-0.0781,-0.252,-10.61,3.78,-3.354,0.9734,100743.47
0.7539,-0.0728,-0.1328,15.793,17.195,8.659,0.769,100742.33
0.6948,-0.0776,0.0103,19.634,19.024,7.744,0.6992,100742.44
0.813,-0.106,-0.124,0.671,4.39,-1.829,0.8292,100742.16
0.8975,-0.104,-0.2427,-2.5,3.598,-3.293,0.9355,100743.06
0.9482,-0.0869,-0.2856,5.366,8.11,-4.39,0.9941,100742.75
1.0503,-0.0806,-0.3174,17.683,11.098,-8.72,1.1002,100743.84
1.1226,-0.0825,-0.2061,33.232,15.549,-10.305,1.1443,100744.2
1.1611,-0.0762,-0.1343,29.329,-1.768,-12.683,1.1714,100744.45
1.1406,-0.0073,-0.2949,16.951,-27.012,-12.805,1.1782,100744.16
1.1963,-0.0552,-0.2964,38.72,-15.122,-15.854,1.2337,100743.32
1.2437,-0.1196,0.2798,64.39,9.268,-13.902,1.2803,100743.41
1.0659,-0.041,0.0977,4.268,-16.22,-8.11,1.0712,100743.63
1.0132,-0.0342,-0.4282,-16.524,-33.354,-9.268,1.1005,100744.03
1.0845,-0.0771,-0.0107,41.463,4.207,0.427,1.0873,100743.34
0.8354,-0.0698,0.3027,33.11,17.683,11.402,0.8913,100742.95
0.7451,-0.0186,-0.0176,-21.646,-12.744,3.476,0.7456,100743.89
0.7993,0.0068,-0.2993,-30.549,-21.402,2.622,0.8535,100745.07
0.7339,0.0088,-0.21,-2.805,-10.976,14.451,0.7634,100744.98
0.7334,-0.0234,-0.0762,4.878,-0.305,14.756,0.7377,100744.55
0.9741,-0.0195,-0.1582,-11.402,-4.207,6.341,0.9871,100744.48
1.0142,0.0107,-0.2969,-20.854,2.744,10.976,1.0568,100744.8
1.0342,0.0117,-0.3862,-17.317,-4.634,11.28,1.104,100744.16
1.1592,-0.0205,-0.2217,-9.146,-2.317,5.976,1.1804,100744.66
1.2749,0.0366,-0.2026,-24.146,-8.049,6.28,1.2914,100744.3
1.1489,0.0459,-0.4902,-29.756,-12.195,8.598,1.25,100744.17
1.2354,-0.0605,-0.103,5.915,8.476,0.549,1.2411,100744.19
1.127,-0.0962,0.0835,-2.622,5.427,2.378,1.1341,100744.2
0.9614,-0.1152,-0.0767,-27.561,-4.573,2.195,0.9713,100744.34
0.8984,-0.1318,-0.1343,-25.854,-2.744,0.366,0.9179,100743.7
0.8511,-0.1113,-0.0747,-16.22,6.524,0.732,0.8616,100743.73
0.9019,-0.1255,-0.1665,-14.817,11.951,-2.5,0.9256,100744.11
0.9526,-0.145,-0.2222,0.0,17.561,1.646,0.9889,100744.38
0.7363,-0.1152,0.019,20.305,30.61,15.915,0.7455,100743.74
0.6611,-0.0874,0.0317,2.805,20.061,9.756,0.6676,100744.35
0.8428,-0.0923,-0.3203,-19.634,-1.159,-4.329,0.9063,100744.2
0.8765,-0.0723,-0.3169,-0.061,0.549,-1.89,0.9348,100743.97
0.9458,-0.0698,-0.3232,7.378,5.549,-5.915,1.0019,100744.03
1.3252,-0.1211,-0.2959,34.268,3.78,-7.683,1.3632,100743.59
1.1021,-0.084,-0.022,35.854,2.317,3.659,1.1055,100743.24
0.9702,-0.0483,-0.145,5.671,-25.671,-9.39,0.9822,100743.84
1.2104,-0.085,-0.189,5.793,-39.085,-25.427,1.2281,100744.54
1.0693,-0.0718,-0.0449,11.524,-14.573,-9.878,1.0727,100744.47
0.9375,-0.0117,-0.1333,-2.134,-17.988,-9.573,0.947,100744.29
1.2139,-0.0454,-0.1665,9.878,-16.22,-14.512,1.2261,100745.39
1.1812,-0.0737,0.0659,29.268,1.22,5.671,1.1853,100744.74
0.8125,-0.0298,0.0601,9.024,-0.305,22.866,0.8153,100744.5
0.6572,-0.0107,-0.2437,-13.049,-13.049,18.963,0.701,100744.07
0.7515,-0.0186,-0.2856,3.11,-5.061,12.805,0.8041,100743.5
0.7095,-0.0034,0.0068,16.463,21.037,18.598,0.7095,100743.56
0.6748,0.0015,-0.0708,-16.951,18.049,12.5,0.6785,100744.48
0.9248,0.0269,-0.3882,-39.207,-3.598,-0.671,1.0033,100744.64
1.0757,0.0156,-0.3931,-21.768,10.0,4.878,1.1454,100745.24
1.1641,-0.0371,-0.2554,-9.939,12.073,10.0,1.1923,100744.88
1.2764,-0.0732,-0.2178,-15.244,1.341,12.256,1.2969,100745.21
1.1133,-0.0234,-0.2749,-23.232,-10.366,16.951,1.147,100745.33
1.1284,-0.0679,-0.1611,-14.695,-12.805,1.646,1.1419,100744.33
1.3379,-0.1323,-0.0312,-18.049,-15.0,-9.024,1.3448,100744.18
1.146,-0.1074,-0.1719,-30.976,-4.756,5.854,1.1638,100743.82
0.8047,-0.1084,-0.0488,-16.463,9.573,13.171,0.8134,100743.44
0.8257,-0.1016,0.0464,-17.134,13.293,-0.976,0.8332,100743.14
0.9424,-0.0923,-0.1934,-29.634,11.28,-9.024,0.9664,100742.92
0.853,-0.0903,-0.2666,-13.598,19.146,0.366,0.8983,100742.41
0.6982,-0.082,-0.1655,10.427,30.671,9.024,0.7223,100742.63
0.6929,-0.0913,-0.0068,16.22,26.341,3.476,0.6989,100742.05
0.9028,-0.0854,-0.1172,-4.146,3.171,-6.098,0.9144,100742.1
0.9287,-0.0732,-0.4155,-15.366,-14.756,-5.488,1.0201,100742.28
1.0518,-0.0923,-0.5171,6.524,-1.463,-13.72,1.1756,100743.64
1.1973,-0.104,-0.2749,39.085,8.963,-12.439,1.2328,100744.14
1.1387,-0.1074,-0.167,40.366,4.634,-6.28,1.1559,100744.16
1.1035,-0.0654,-0.1436,25.732,-10.732,-5.61,1.1147,100744.91
1.1201,-0.0752,-0.4375,16.098,-15.0,-14.695,1.2049,100745.23
1.3418,-0.1431,-0.0913,59.39,-6.829,-19.695,1.3525,100745.33
1.0923,-0.0894,0.2734,50.122,-0.244,-1.951,1.1295,100743.83
0.9561,-0.0439,-0.105,0.976,-26.098,-3.293,0.9628,100744.04
1.0503,-0.0391,-0.0986,14.024,-17.317,-2.317,1.0556,100743.85
0.98,-0.0342,0.0415,18.963,0.549,6.22,0.9815,100743.21
0.8276,-0.0112,-0.0273,-2.195,-11.524,11.707,0.8282,100743.48
0.7031,0.0059,-0.2358,-14.207,-13.598,12.622,0.7416,100743.77
0.6758,-0.0107,-0.2412,3.902,-3.232,11.22,0.7176,100743.62
0.6963,-0.0288,0.0322,14.085,7.561,8.415,0.6976,100744.26
0.7827,-0.0601,-0.1416,-15.0,5.549,1.098,0.7977,100744.13
1.0225,-0.0605,-0.2915,-18.354,10.793,0.183,1.0649,100743.89
1.0171,-0.0479,-0.2563,-10.183,11.341,9.512,1.05,100743.7
1.0942,-0.0566,-0.3599,-15.183,3.72,5.671,1.1533,100743.93
1.2241,-0.0645,-0.2896,-6.341,0.305,7.988,1.2596,100744.73
1.0713,-0.0132,-0.2393,-7.012,-5.61,16.402,1.0978,100744.73
1.1284,-0.0288,-0.2578,-7.134,-7.622,2.744,1.1579,100744.96
1.332,-0.1279,-0.0659,0.61,1.098,-9.024,1.3398,100743.52
1.166,-0.124,-0.0454,-9.207,-0.305,-0.305,1.1735,100743.45
0.9233,-0.1133,-0.0005,-12.744,1.768,3.598,0.9303,100742.25
0.9307,-0.104,0.0576,-19.146,0.61,-6.159,0.9382,100742.23
0.9741,-0.0767,-0.1719,-33.232,2.073,-11.341,0.9921,100742.25
0.9121,-0.0776,-0.2217,-17.988,9.512,-5.61,0.9419,100742.73
0.7163,-0.0664,-0.1265,-0.854,18.232,2.439,0.7304,100743.21
0.7285,-0.0596,-0.1509,-2.805,12.927,-3.78,0.7464,100743.33
0.9375,-0.0806,-0.2822,-5.061,2.561,-9.024,0.9824,100743.79
0.9521,-0.0903,-0.3247,9.573,2.195,-1.341,1.01,100743.41
0.9058,-0.0796,-0.2046,29.146,4.695,0.305,0.932,100744.2
1.0127,-0.0991,-0.0981,29.024,-8.537,-8.598,1.0223,100744.7
1.1338,-0.1191,-0.2695,16.524,-18.354,-13.171,1.1715,100744.2
1.1025,-0.0835,-0.187,27.988,-17.012,-8.293,1.1214,100744.45
1.1494,-0.0166,-0.3169,25.244,-23.232,-13.415,1.1924,100744.88
1.3418,-0.0757,-0.2183,52.378,-15.671,-13.659,1.3615,100743.99
1.0581,-0.0508,0.2144,66.037,0.488,6.463,1.0808,100743.92
0.8721,0.0059,0.0947,24.756,-7.561,1.646,0.8772,100743.38
1.1143,0.0073,-0.1821,5.366,-9.817,-11.829,1.1291,100743.32
1.0918,-0.0044,-0.1533,18.415,6.037,0.183,1.1025,100743.18
0.7617,0.0078,-0.0229,17.012,7.5,7.866,0.7621,100743.05
0.8203,0.0303,-0.2285,-9.451,-15.0,-4.024,0.8521,100742.96
0.813,0.0146,-0.4453,-6.22,-10.976,2.744,0.9271,100743.88
0.7451,-0.022,-0.1914,24.024,7.683,10.549,0.7696,100744.21
0.8271,-0.0591,-0.1465,15.732,3.415,8.476,0.8421,100743.82
0.9165,-0.0635,-0.3301,4.085,-3.476,9.39,0.9762,100743.56
0.9648,-0.0596,-0.2861,13.232,0.183,12.134,1.0081,100743.6
1.0098,-0.0703,-0.2231,8.78,0.793,11.524,1.0365,100743.62
1.1216,-0.0981,-0.2959,-1.28,-3.78,10.0,1.1641,100744.12
1.1353,-0.1147,-0.2412,-0.61,-0.122,17.927,1.1663,100744.26
1.0,-0.0776,-0.2729,-8.72,-0.122,24.512,1.0395,100744.25
0.9561,-0.0801,-0.2339,-7.561,3.537,15.732,0.9875,100744.38
1.2241,-0.1128,-0.1675,-3.049,10.915,-0.488,1.2407,100743.73
1.1631,-0.1079,-0.1606,0.488,20.244,5.305,1.1791,100743.72
0.8198,-0.0547,0.1826,-9.451,13.537,9.451,0.8417,100743.86
0.8599,-0.0732,-0.0444,-33.841,-3.171,-7.012,0.8641,100743.68
1.0762,-0.0718,-0.2046,-24.451,0.854,-17.134,1.0978,100744.29
1.0459,-0.0737,-0.2085,-2.744,15.854,-11.463,1.069,100743.52
0.8774,-0.0649,-0.0835,13.232,21.22,-1.28,0.8838,100743.09
0.7852,-0.0698,-0.0684,6.829,11.463,1.829,0.7912,100743.48
0.8208,-0.0874,-0.2192,-0.549,2.5,-2.744,0.8541,100744.28
0.8218,-0.0786,-0.1973,5.915,4.085,-7.805,0.8488,100744.27
0.9731,-0.0728,-0.3745,3.598,8.232,-6.646,1.0453,100743.62
0.9912,-0.1167,-0.2959,18.171,18.902,1.829,1.041,100744.11
0.9404,-0.1597,-0.2007,17.378,4.878,-6.22,0.9748,100744.36
1.2363,-0.1509,-0.1685,13.171,-2.5,-19.817,1.2568,100744.55
1.1499,-0.1323,-0.2319,4.878,-2.012,-7.561,1.1805,100744.59
0.9673,-0.0659,-0.1362,5.244,-4.878,-2.683,0.9791,100744.25
0.9858,-0.0093,-0.2393,-5.915,-17.439,-14.024,1.0145,100743.98
1.2314,-0.0645,-0.3062,7.5,-15.305,-21.768,1.2706,100743.3
1.1743,-0.0884,-0.0225,30.549,-1.585,-7.317,1.1779,100743.38
0.9473,-0.0117,0.061,19.024,-10.488,1.159,0.9493,100743.44
0.9551,0.0127,0.021,14.695,-13.72,-4.207,0.9554,100743.46
0.9629,0.0454,0.0161,19.451,-4.756,-6.098,0.9641,100743.63
0.9453,0.063,-0.0869,19.451,2.134,-7.378,0.9514,100743.75
0.8784,0.1074,-0.1699,24.939,9.268,-3.415,0.9011,100743.7
0.8145,0.1489,-0.2949,36.037,7.683,1.28,0.8789,100743.79
0.7666,0.1279,-0.2515,60.427,8.354,0.488,0.8169,100744.23
1.04,0.0107,-0.2324,54.512,-8.902,-7.744,1.0657,100744.07
0.9966,0.0244,-0.2393,58.354,-12.561,-3.049,1.0252,100743.91
1.043,0.0205,-0.251,60.0,-19.207,-4.939,1.0729,100744.32
1.1216,0.0273,-0.3223,67.561,-25.61,-2.012,1.1673,100744.12
1.0161,0.0278,-0.2817,92.866,-12.744,4.024,1.0548,100743.37
1.1108,-0.0269,0.1172,116.037,-1.768,-8.598,1.1173,100742.55
1.3535,-0.0791,0.0933,83.78,-14.817,-21.159,1.359,100742.92
0.9771,-0.0015,-0.2446,62.866,-20.549,-4.939,1.0072,100743.91
0.8262,0.0361,0.0435,93.232,-2.622,-7.134,0.8281,100742.89
1.0059,0.0142,0.0645,81.585,-4.634,-24.146,1.008,100743.54
1.1265,0.0146,-0.1782,72.256,-2.988,-25.976,1.1406,100743.9
0.8999,0.0078,-0.0737,98.659,12.866,-10.793,0.903,100742.97
0.7173,0.0029,0.0757,107.134,15.488,-11.341,0.7213,100742.73
0.8594,-0.0454,-0.0615,93.72,2.439,-26.463,0.8628,100742.44
0.9922,-0.0654,-0.2461,96.768,-3.659,-29.512,1.0243,100742.1
0.9731,-0.0566,-0.2783,122.866,9.695,-22.378,1.0137,100741.72
0.9468,-0.0605,-0.0972,154.207,22.256,-18.963,0.9537,100742.33
1.0527,-0.1035,0.0796,158.293,16.646,-23.72,1.0608,100742.74
1.0933,-0.0952,-0.0557,139.573,3.78,-23.72,1.0988,100741.96
1.1279,-0.0488,-0.061,141.646,13.354,-20.061,1.1306,100742.88
1.1997,-0.064,0.0811,138.232,12.561,-16.22,1.2041,100743.28
1.0459,0.0229,-0.1392,110.854,-0.366,-6.707,1.0554,100742.87
0.9751,0.0737,-0.2329,114.024,-0.427,-4.451,1.0052,100742.93
0.9531,0.0625,0.0186,127.012,14.146,-1.585,0.9554,100743.24
0.7964,0.0723,0.1099,96.951,9.268,-4.329,0.8072,100743.33
0.8618,0.0859,-0.1846,56.28,-12.805,-21.89,0.8855,100743.88
1.0225,0.0854,-0.3564,57.927,-18.841,-27.256,1.0862,100743.78
1.0024,0.0762,-0.4004,81.28,-3.598,-14.024,1.0821,100744.23
0.9492,0.0269,-0.1821,107.683,9.024,-3.963,0.9669,100744.06
1.1138,-0.0718,-0.0249,103.049,1.646,-2.988,1.1164,100744.58
1.0654,-0.0918,-0.1211,76.768,-8.963,9.756,1.0762,100744.59
0.9175,-0.0581,-0.2153,64.817,-9.085,19.146,0.9442,100744.09
0.9697,-0.0674,-0.127,66.28,-4.634,15.244,0.9803,100743.96
1.0615,-0.103,-0.124,59.146,-2.988,9.634,1.0737,100743.02
1.1416,-0.1284,0.0088,57.927,-0.793,7.744,1.1488,100743.3
1.0479,-0.0913,0.0298,37.073,-4.817,12.988,1.0522,100743.6
0.855,-0.0303,-0.1528,17.561,-13.171,13.232,0.8691,100742.88
1.0264,-0.0244,-0.1313,27.378,-11.098,0.122,1.035,100743.67
1.1216,-0.0386,-0.1035,33.049,1.28,-2.988,1.127,100743.33
0.9961,-0.0249,0.0103,36.829,6.463,1.768,0.9965,100743.66
0.8818,-0.0083,-0.0918,24.268,-0.671,-2.195,0.8866,100744.16
0.8828,-0.0264,-0.2271,27.134,-0.671,-6.159,0.9119,100743.79
0.8843,-0.0498,-0.1143,42.744,12.134,-5.366,0.893,100744.25
0.9595,-0.085,-0.1318,36.707,12.073,-6.89,0.9722,100743.64
1.064,-0.1357,-0.2534,33.415,9.146,-3.78,1.1021,100744.02
1.0312,-0.1431,-0.1255,47.5,12.195,5.915,1.0487,100743.84
0.9858,-0.1406,-0.021,35.366,9.085,5.732,0.996,100744.31
0.9565,-0.1318,-0.1909,10.671,-9.024,-2.561,0.9843,100744.02
1.0122,-0.0884,-0.2212,8.415,-13.841,-12.073,1.0399,100744.43
1.0688,-0.0493,-0.2197,10.671,-19.451,-16.22,1.0923,100743.41
1.043,-0.0137,-0.2983,14.268,-20.488,-13.598,1.0849,100744.23
1.0317,-0.0479,-0.1943,38.415,-8.963,-15.122,1.051,100744.22
1.1074,-0.0913,0.2598,52.317,-1.463,-20.793,1.1411,100744.2
1.0806,-0.0039,0.0977,4.146,-30.549,-24.451,1.085,100744.09
1.0239,0.0215,-0.3711,-3.659,-34.451,-22.805,1.0893,100743.76
0.981,0.0225,-0.0664,59.146,12.439,-10.976,0.9835,100743.39
0.8252,-0.0098,0.1826,72.073,24.878,-3.354,0.8452,100743.6
0.896,-0.0547,0.0498,47.073,8.354,-8.78,0.899,100744.6
0.8848,-0.0396,-0.1353,17.012,12.439,2.256,0.8959,100743.97
1.0376,-0.0259,-0.2969,3.72,-1.037,-1.585,1.0795,100744.14
1.0298,-0.0234,-0.3418,10.793,-4.695,6.463,1.0853,100743.67
0.9751,-0.0176,-0.0815,18.78,-1.646,13.171,0.9787,100742.83
0.9966,-0.0166,-0.0815,-4.939,-18.78,11.951,1.0001,100743.17
1.0317,-0.0576,-0.1694,-12.866,-18.537,3.72,1.0471,100742.93
1.2612,-0.1562,0.0361,1.22,-6.951,-11.037,1.2714,100742.74
1.3096,-0.1851,0.0308,-10.0,-6.22,-10.305,1.3229,100742.73
1.0723,-0.1782,-0.0898,-15.183,-1.037,2.622,1.0907,100743.09
0.8306,-0.1611,0.0366,-1.768,1.28,5.427,0.8468,100743.01
0.939,-0.1841,0.0938,-7.561,-0.671,-9.573,0.9614,100743.41
1.1001,-0.2075,-0.1099,-23.171,4.39,-14.146,1.1249,100743.71
0.9775,-0.1611,-0.1934,-16.402,15.183,1.951,1.0094,100743.45
0.7271,-0.1064,-0.1709,-4.512,14.573,12.195,0.7544,100744.13
0.8213,-0.1191,-0.1846,1.098,7.012,3.902,0.8502,100744.26
0.9077,-0.1436,-0.1353,5.244,5.427,3.963,0.9289,100744.13
0.8574,-0.1323,-0.1831,0.671,0.183,5.122,0.8867,100744.12
1.04,-0.1611,-0.293,2.866,-5.0,-5.488,1.0925,100743.39
1.1689,-0.1719,-0.2041,21.829,-1.89,-3.841,1.199,100743.47
1.0552,-0.1528,0.064,24.512,-3.415,0.793,1.0681,100742.9
1.0479,-0.0576,-0.1016,-6.768,-28.476,-8.963,1.0543,100743.22
1.1802,-0.0542,-0.4551,-1.463,-35.732,-13.963,1.266,100743.3
1.1206,-0.1001,-0.0669,53.293,-8.354,4.878,1.1271,100743.88
0.9531,-0.0845,0.0308,5.366,-13.598,-12.744,0.9574,100744.27
1.2061,-0.1226,0.0122,2.744,-4.817,-18.11,1.2123,100743.64
0.9673,-0.0918,0.0469,-2.744,5.488,-0.976,0.9728,100744.25
0.8711,-0.0454,-0.0791,-16.159,-3.841,3.72,0.8759,100743.23
0.7261,-0.0229,-0.1816,-17.012,-3.841,11.28,0.7488,100742.21
0.7051,-0.0352,-0.1587,-8.598,5.854,10.915,0.7236,100742.2
0.835,-0.063,-0.1411,-8.293,8.598,7.195,0.8491,100741.94
0.9463,-0.0742,-0.2314,-14.207,5.488,7.073,0.977,100741.98
1.1304,-0.0894,-0.2695,-11.28,3.72,10.183,1.1655,100741.92
1.1323,-0.0938,-0.3071,-12.744,-3.232,18.659,1.177,100742.12
1.1333,-0.0908,-0.3447,-13.659,-10.244,22.134,1.188,100741.74
1.0928,-0.0845,-0.2148,-6.585,-9.268,25.976,1.1169,100741.97
1.0654,-0.0942,-0.0581,-7.195,-4.878,17.073,1.0712,100743.02
1.2236,-0.1577,0.022,-22.683,-7.927,-2.012,1.234,100742.57
1.2026,-0.1567,-0.1729,-41.159,-10.0,-4.207,1.2251,100742.48
0.9053,-0.1279,-0.0879,-21.037,5.488,7.622,0.9185,100741.91
0.7925,-0.1279,0.1392,-8.659,8.72,5.244,0.8147,100741.86
0.8682,-0.1509,0.0005,-25.793,1.89,-7.927,0.8812,100740.97
1.0679,-0.1831,-0.1831,-26.951,4.39,-12.805,1.0988,100741.41
0.9448,-0.1792,-0.168,-7.317,13.415,4.085,0.9762,100741.38
0.6919,-0.1392,-0.0156,4.451,17.256,12.5,0.7059,100741.59
0.8589,-0.144,-0.1562,-10.0,3.11,-0.427,0.8848,100742.48
1.0132,-0.1699,-0.3184,-2.317,5.793,2.805,1.0755,100742.55
0.9604,-0.1382,-0.4277,2.805,-3.78,-4.146,1.0604,100742.36
1.103,-0.1528,-0.311,26.89,-3.171,-5.915,1.1562,100742.71
1.0186,-0.1772,-0.146,25.61,-8.171,-3.293,1.0441,100742.82
1.0068,-0.1157,-0.2065,17.134,-19.573,-10.915,1.0343,100743.91
1.1943,-0.167,-0.1118,21.951,-12.988,-22.561,1.2111,100744.2
1.3013,-0.1992,0.1558,31.524,0.183,-17.927,1.3256,100744.7
1.0322,-0.0762,0.1899,5.488,-6.037,-4.451,1.0523,100743.84
0.9751,-0.0405,-0.0669,-18.598,-23.11,-9.512,0.9782,100742.7
1.1255,-0.062,-0.1514,-6.402,-7.012,-5.61,1.1373,100743.21
0.812,-0.0503,-0.0669,9.146,15.0,13.354,0.8163,100743.85
0.7314,-0.0024,-0.1816,8.354,9.512,9.207,0.7537,100744.06
0.7407,-0.0107,-0.2261,4.756,6.829,6.037,0.7745,100744.36
0.7827,-0.0288,-0.2188,15.244,11.402,7.256,0.8132,100743.94
0.9233,-0.0674,-0.1895,20.549,20.122,10.61,0.945,100744.48
0.9766,-0.1001,-0.2227,15.427,10.732,17.805,1.0066,100743.67
1.0151,-0.0645,-0.2476,11.768,3.049,15.427,1.0469,100743.83
1.1089,-0.0879,-0.2129,2.256,-1.524,9.39,1.1326,100743.43
1.1602,-0.1182,-0.1362,-14.268,-5.671,6.28,1.1741,100743.48
1.1294,-0.1289,-0.1431,-20.915,-4.451,6.098,1.1457,100743.79
1.1421,-0.1582,0.0542,-18.354,-0.671,-3.354,1.1543,100743.42
1.2256,-0.145,0.106,-37.805,1.829,-16.585,1.2387,100743.36
1.0425,-0.1411,0.0459,-59.39,-11.098,-13.049,1.053,100743.83
0.9082,-0.1582,0.0029,-53.537,-12.5,-7.683,0.9219,100743.7
0.8662,-0.1631,-0.0781,-35.915,10.244,-7.378,0.8849,100744.32
0.9717,-0.1602,-0.1455,-18.293,27.073,-7.927,0.9955,100743.55
0.9761,-0.1748,-0.0552,-12.378,31.098,-2.012,0.9931,100743.45
0.8398,-0.1592,-0.0405,-19.878,19.024,3.598,0.8558,100744.12
0.792,-0.123,-0.1753,-23.415,11.951,1.768,0.8204,100743.9
0.6929,-0.0693,-0.1943,-15.244,12.256,-5.671,0.7229,100743.46
1.0405,-0.0557,-0.3555,-6.037,9.329,-18.232,1.101,100742.8
1.1543,-0.0977,-0.2852,15.915,21.159,8.171,1.193,100743.03
0.8828,-0.1553,0.019,26.89,25.305,13.354,0.8966,100743.81
1.0938,-0.1499,-0.0977,14.756,0.793,-8.415,1.1083,100743.66
1.2139,-0.1123,-0.2627,16.402,0.244,-11.707,1.247,100744.27
1.0576,-0.0684,-0.0444,34.817,9.756,-6.707,1.0608,100744.38
1.2095,-0.1304,0.4409,25.671,-10.183,-20.732,1.2939,100743.81
1.2349,-0.1108,0.2622,-23.415,-30.244,-17.988,1.2673,100743.65
0.9521,-0.0029,-0.0215,-32.073,-26.463,-5.122,0.9524,100743.89
0.9766,0.0044,0.1167,-21.707,-14.878,-7.561,0.9835,100742.83
0.9434,-0.0322,0.0522,-15.244,-6.585,-0.976,0.9454,100743.3
0.8281,0.0029,0.0649,-4.756,10.61,7.256,0.8307,100743.73
0.748,0.0142,0.2065,-31.524,-2.683,6.89,0.7762,100743.45
0.8003,-0.0259,-0.1929,-65.732,-20.122,3.659,0.8236,100743.73
0.8672,-0.0015,-0.3213,-39.146,-1.646,10.549,0.9248,100743.48
0.7231,0.0439,-0.2471,-13.11,16.341,13.293,0.7654,100743.88
0.9995,0.0542,-0.1313,-12.866,8.049,-2.561,1.0096,100743.45
1.2417,0.0259,-0.2466,-27.683,-16.098,2.988,1.2662,100743.85
1.2124,-0.0015,-0.3091,-19.329,-6.951,19.024,1.2512,100743.18
1.2329,-0.0322,-0.1348,2.439,-0.976,26.098,1.2407,100742.9
1.0864,-0.0278,-0.0552,3.537,-8.963,28.78,1.0882,100742.84
1.1987,-0.0815,0.0088,-0.305,-11.524,14.39,1.2015,100742.4
0.9731,-0.1523,0.0337,-1.829,-4.39,14.817,0.9856,100742.43
0.8398,-0.1616,0.0664,-7.744,-1.707,7.805,0.8578,100742.6
0.8652,-0.1982,0.0508,-13.659,4.634,-1.341,0.8891,100742.55
0.9199,-0.1836,0.0718,-19.268,8.902,-7.317,0.9408,100742.67
1.0156,-0.1704,-0.0728,-27.012,3.049,-9.024,1.0324,100742.92
0.9248,-0.1641,-0.0903,-12.866,8.354,4.39,0.9436,100742.0
0.7173,-0.144,0.0513,0.427,17.622,12.378,0.7334,100742.55
0.8047,-0.1436,0.0049,-8.963,9.817,1.768,0.8174,100741.7
0.9316,-0.1445,-0.1211,-14.939,9.329,-1.28,0.9505,100742.7
0.9185,-0.0977,-0.2461,-12.805,10.976,2.012,0.9559,100743.17
0.9741,-0.1069,-0.396,1.22,6.829,-2.5,1.057,100742.91
1.0977,-0.1274,-0.2515,33.598,17.927,-4.024,1.1333,100743.55
1.0479,-0.1177,-0.0225,39.878,21.28,-2.988,1.0547,100743.95
1.0854,-0.0698,0.0039,13.232,-5.976,-11.707,1.0877,100744.31
1.1289,-0.0015,-0.2759,-9.817,-29.451,-19.268,1.1621,100744.25
1.2358,-0.063,-0.3062,23.78,-19.207,-25.305,1.2748,100744.08
1.1279,-0.0962,0.2402,68.049,4.817,-15.366,1.1572,100743.83
1.0098,-0.0723,0.2144,36.524,-8.11,-15.0,1.0348,100744.23
1.1885,-0.0708,-0.0347,17.927,-18.354,-16.951,1.1911,100744.06
1.0024,-0.0698,0.1313,35.854,9.451,4.817,1.0134,100743.43
0.7202,-0.0518,0.2754,24.939,14.39,11.829,0.7728,100744.09
0.792,-0.02,0.0586,-13.293,-8.11,-1.585,0.7944,100743.7
0.8848,-0.0103,-0.2207,-24.329,-8.72,0.732,0.9119,100743.16
0.7808,-0.021,-0.1758,-0.305,18.659,16.707,0.8006,100743.27
0.8135,-0.0425,0.0132,9.634,26.951,19.634,0.8147,100743.59
0.938,-0.0645,-0.0142,-9.878,16.28,13.963,0.9403,100742.86
1.2085,-0.0532,-0.1328,-32.439,-5.183,7.317,1.2169,100742.41
1.2104,0.0098,-0.2603,-44.512,-18.232,15.976,1.2381,100742.34
1.0327,0.0508,-0.2378,-37.134,-23.78,21.402,1.061,100742.38
1.062,0.0195,-0.2026,-26.402,-28.171,14.878,1.0813,100741.7
1.0674,-0.0659,-0.0703,-7.134,-13.537,10.122,1.0717,100742.55
1.2026,-0.1318,0.2378,-1.341,-1.463,-1.463,1.233,100742.21
1.1582,-0.1309,0.0376,-31.037,-5.305,-6.28,1.1662,100742.8
1.0674,-0.1528,-0.0425,-25.488,-2.073,-4.756,1.0791,100743.0
0.9092,-0.165,-0.0112,-12.5,4.634,2.866,0.9241,100743.65
0.7271,-0.1777,-0.0312,-7.622,12.561,4.024,0.7491,100742.42
0.8853,-0.1899,-0.0303,-5.0,8.415,-8.78,0.9059,100741.99
1.0439,-0.187,-0.1138,-7.988,11.89,-7.134,1.0666,100741.67
0.8916,-0.146,-0.2456,-1.159,13.476,7.927,0.9363,100741.55
0.8398,-0.1084,-0.1929,21.646,13.78,12.195,0.8685,100741.36
0.9014,-0.1206,-0.1353,32.866,11.524,11.768,0.9194,100740.95
0.8726,-0.1387,-0.0972,30.366,10.488,11.768,0.8888,100741.85
0.8359,-0.1348,-0.1753,20.122,1.768,3.659,0.8647,100741.42
1.0615,-0.1387,-0.2129,20.976,0.732,-11.037,1.0915,100741.23
1.2217,-0.1592,-0.1772,22.927,-7.256,-14.39,1.2447,100741.58
1.1836,-0.1191,-0.2725,18.232,-17.5,-10.61,1.2204,100742.31
1.0898,-0.0981,-0.2192,34.695,-17.988,-8.963,1.116,100741.77
1.2173,-0.1602,0.0015,52.134,-11.402,-20.0,1.2278,100741.84
1.1592,-0.1606,0.271,43.171,-10.793,-18.78,1.2012,100741.79
0.9541,-0.0684,0.1201,2.622,-33.354,-16.28,0.9641,100740.88
0.9976,-0.0376,-0.2051,-6.28,-34.512,-18.171,1.0191,100740.94
0.9834,-0.0146,-0.1035,27.683,-5.366,-6.524,0.9889,100741.23
0.7881,0.0034,0.0547,34.146,2.256,3.171,0.79,100740.61
0.7705,0.0054,-0.1611,17.073,-10.732,-1.159,0.7872,100740.6
0.8501,0.001,-0.1665,32.012,0.244,2.012,0.8663,100741.38
0.7563,-0.0269,0.0234,17.378,13.293,5.488,0.7572,100742.3
1.1406,-0.0459,-0.2778,-14.207,-8.415,-5.671,1.1749,100742.98
1.147,-0.0522,-0.3359,-6.341,-5.488,15.915,1.1963,100743.14
1.0513,-0.0854,-0.1226,2.744,3.963,23.293,1.0618,100743.14
1.1367,-0.1147,-0.1509,-14.451,-13.78,17.805,1.1524,100743.49
1.1895,-0.1069,-0.0601,-17.683,-6.463,12.073,1.1958,100743.13
1.3457,-0.1265,-0.1606,-31.402,-8.902,0.671,1.3611,100743.26
1.2109,-0.0977,-0.085,-21.646,-0.61,5.305,1.2178,100743.73
0.9468,-0.0884,0.0059,-17.5,3.11,8.354,0.9509,100743.46
0.8081,-0.0991,-0.0698,-20.732,-1.402,2.073,0.8172,100743.15
0.8169,-0.1255,-0.0181,-12.561,7.439,-6.28,0.8267,100743.65
0.9561,-0.1675,-0.0811,-16.159,7.744,-13.841,0.974,100743.41
0.8745,-0.1851,-0.2061,-11.037,7.256,-5.183,0.9173,100743.32
0.6763,-0.1748,-0.0908,12.317,12.439,3.78,0.7044,100743.66
0.7896,-0.1533,-0.022,13.171,11.037,-1.585,0.8046,100744.03
0.9331,-0.1484,-0.29,-1.768,8.72,-0.976,0.9884,100742.7
0.9165,-0.0938,-0.3135,15.427,14.939,4.146,0.9732,100743.29
0.9795,-0.082,-0.2812,27.866,12.744,-2.927,1.0224,100742.73
1.1455,-0.123,-0.2861,41.585,4.146,-13.476,1.1871,100743.8
1.2642,-0.1611,0.0215,52.805,-3.049,-12.012,1.2746,100743.99
1.0986,-0.2002,-0.0723,25.183,-43.049,-13.78,1.1191,100743.75
1.4175,-0.2144,-0.3125,18.11,-47.073,-27.012,1.4673,100743.46
1.1265,-0.0962,0.0376,45.305,-8.963,2.317,1.1312,100743.59
0.7729,0.0132,0.0317,24.512,-13.72,2.988,0.7737,100743.21
1.0732,0.0034,-0.2007,17.561,-13.354,-18.537,1.0918,100742.8
1.0684,0.0005,-0.0024,43.78,12.927,-4.573,1.0684,100743.22
0.8369,-0.0093,0.1523,30.671,17.805,7.683,0.8507,100742.91
0.7554,0.0132,-0.0498,-5.793,-0.915,6.829,0.7571,100742.2
0.6978,0.0269,-0.2363,-13.11,-1.646,8.415,0.7372,100742.15
0.7158,0.0068,-0.1704,0.061,11.524,9.939,0.7359,100741.99
0.8291,-0.0137,-0.1411,-3.902,3.293,8.841,0.8411,100742.39
0.9146,-0.0015,-0.2686,-15.0,-3.598,7.622,0.9532,100741.45
1.0942,-0.0166,-0.3218,-10.122,-4.085,2.927,1.1407,100741.34
1.3052,-0.0742,-0.2734,-1.463,-7.561,3.354,1.3356,100741.65
1.3135,-0.0752,-0.2275,1.22,-4.756,18.72,1.3352,100742.97
1.0122,-0.0366,-0.1211,6.463,-2.866,29.939,1.0201,100742.6
1.0283,-0.103,0.0737,-0.549,-8.354,7.805,1.0361,100742.47
1.2578,-0.1611,-0.1489,-29.573,-20.061,-15.0,1.2768,100742.09
1.1748,-0.1934,-0.2222,-20.366,-5.549,-8.232,1.2112,100742.08
0.9829,-0.1982,0.1284,5.122,11.646,1.463,1.0109,100742.79
0.8359,-0.1802,0.2393,-13.78,3.171,0.976,0.888,100742.62
0.939,-0.1709,-0.1001,-49.329,-17.378,-11.768,0.9596,100743.56
1.0044,-0.147,-0.3101,-42.134,-24.939,-3.171,1.0614,100744.17
0.7734,-0.1074,-0.2432,-10.366,4.39,19.451,0.8178,100744.36
0.6094,-0.1123,-0.1597,5.854,14.634,20.671,0.6399,100743.66
0.8589,-0.1353,-0.2144,3.78,0.244,6.524,0.8955,100742.77
0.9058,-0.1416,-0.3262,6.159,5.976,8.902,0.9731,100742.48
0.9058,-0.1421,-0.3975,17.927,13.598,6.341,0.9993,100742.12
1.062,-0.1655,-0.3452,33.049,26.159,-3.476,1.1289,100743.34
1.0596,-0.1797,-0.2168,39.085,19.451,-5.244,1.0963,100743.13
0.9722,-0.1484,-0.1201,18.963,-3.841,-10.61,0.9907,100743.47
0.9531,-0.0835,-0.2891,-3.78,-25.915,-22.439,0.9995,100744.21
1.2988,-0.1475,-0.1733,17.256,-7.561,-34.329,1.3186,100743.54
1.2944,-0.1636,0.1812,22.744,-1.524,-22.134,1.3172,100743.9
1.0527,-0.0298,0.0181,-17.195,-31.159,-14.634,1.0533,100743.32
1.0332,0.0078,-0.2617,-18.354,-29.146,-16.646,1.0659,100743.38
0.9795,-0.0132,-0.1274,23.354,10.915,-5.854,0.9878,100742.92
0.8179,-0.0405,0.0513,34.085,32.683,6.402,0.8205,100741.99
0.8066,-0.0747,-0.0068,15.915,41.585,11.768,0.8101,100742.48
0.7222,-0.0879,-0.0938,3.293,18.78,16.768,0.7335,100742.27
0.7432,-0.0552,-0.0464,-2.073,-7.378,12.744,0.7467,100742.45
0.9277,-0.042,-0.1968,-24.512,-7.134,6.524,0.9493,100743.09
1.0615,-0.0259,-0.4448,-29.695,-13.171,11.28,1.1512,100743.31
1.0454,-0.0044,-0.3135,-6.524,-1.463,22.134,1.0914,100743.23
1.0269,-0.0356,-0.2803,-6.463,2.134,20.122,1.065,100743.78
1.2876,-0.1079,-0.3633,-8.841,-10.61,13.963,1.3422,100743.21
1.0947,-0.0962,-0.2012,2.256,-10.793,32.012,1.1172,100743.04
0.9214,-0.1235,0.0312,-4.512,0.427,22.866,0.9302,100742.67
1.083,-0.1899,0.0356,-30.305,-7.561,-5.61,1.1001,100742.01
0.7603,-0.1846,-0.0586,19.573,37.561,14.024,0.7845,100743.29
0.625,-0.1519,-0.0181,18.963,35.854,16.951,0.6434,100743.09
0.7778,-0.1304,-0.1338,4.878,14.756,5.305,0.7999,100742.59
0.8838,-0.1206,-0.2974,-4.39,11.22,1.951,0.9402,100742.34
0.9673,-0.0972,-0.4087,2.195,20.061,-2.134,1.0546,100742.62
1.0732,-0.1167,-0.3496,21.951,11.28,-11.951,1.1348,100742.36
1.2422,-0.1572,-0.082,37.317,1.89,-21.951,1.2548,100742.4
1.2534,-0.1465,-0.0371,17.073,-13.232,-20.915,1.2625,100742.92
1.1729,-0.1177,-0.2607,5.0,-20.732,-19.878,1.2072,100743.57
1.3472,-0.1938,0.0068,42.012,-5.366,-22.5,1.3611,100743.31
1.1836,-0.1802,0.4165,39.634,-3.232,-8.659,1.2676,100743.24
0.9819,-0.0713,0.1426,-13.049,-30.244,-7.317,0.9948,100743.17
0.9951,-0.0439,-0.0796,-18.171,-33.902,-11.829,0.9993,100744.34
0.9688,-0.0557,0.0034,6.585,-1.707,-1.951,0.9704,100743.03
0.7065,-0.0469,0.1343,11.768,16.951,11.646,0.7207,100743.28
0.5967,-0.0303,-0.0161,-10.366,-3.415,7.561,0.5977,100744.09
0.6865,-0.0376,-0.1064,-15.305,-2.195,2.256,0.6957,100743.45
0.6831,-0.0708,-0.0249,-9.085,17.927,5.305,0.6872,100742.95
0.9004,-0.0845,-0.0332,-17.195,16.829,1.159,0.905,100742.95
1.1812,-0.0576,-0.1377,-31.341,-1.341,5.854,1.1905,100743.09
1.084,-0.0688,0.0684,11.707,0.732,20.427,1.0883,100743.69
1.229,-0.1401,0.1523,-13.232,-5.488,-0.427,1.2463,100743.25
1.0698,-0.1221,0.1357,-31.707,-5.793,-1.463,1.0853,100743.33
0.8042,-0.1035,0.0308,-39.146,-2.927,-2.622,0.8114,100743.39
0.7651,-0.1045,0.0112,-30.976,0.793,-9.756,0.7723,100743.06
0.8511,-0.1333,0.0879,-21.159,11.28,-17.439,0.8659,100742.8
1.0518,-0.1602,-0.0801,-26.585,9.207,-18.049,1.0669,100742.5
0.8735,-0.1348,-0.2285,-11.341,15.122,5.244,0.9129,100742.77
0.6299,-0.1006,-0.1382,15.122,23.415,16.646,0.6527,100742.83
1.0127,-0.1567,-0.1299,25.61,3.293,-4.39,1.033,100743.26
1.0146,-0.1143,-0.1309,15.305,-1.707,-1.22,1.0294,100744.16
1.0278,-0.1182,-0.3589,0.61,-2.317,-7.378,1.0951,100743.75
1.1504,-0.1333,-0.3911,19.024,-5.915,-14.756,1.2223,100743.45
1.1558,-0.1406,-0.063,38.659,0.305,-11.646,1.166,100743.47
1.1519,-0.1055,-0.0312,16.22,-9.695,-17.073,1.1571,100743.95
1.3906,-0.1353,-0.2319,9.512,-28.902,-28.415,1.4163,100743.86
1.2319,-0.1431,0.1377,34.939,-3.171,-7.866,1.2478,100742.67
0.8613,-0.064,0.1807,13.72,-19.085,0.915,0.8824,100742.28
0.998,-0.0405,-0.0161,-1.22,-33.78,-11.829,0.999,100742.09
0.96,-0.0322,0.0464,14.268,-1.829,-1.951,0.9616,100742.94
0.7026,0.0151,0.1128,9.146,12.012,5.122,0.7118,100742.95
0.752,0.0581,-0.2495,-13.293,-3.415,1.829,0.7944,100743.38
0.7544,0.0107,-0.2017,10.183,20.549,12.622,0.781,100743.65
0.8569,-0.0186,-0.084,16.159,27.439,14.634,0.8612,100743.24
1.0381,-0.0083,-0.1357,-4.024,2.134,10.61,1.047,100743.05
1.249,-0.0166,-0.3091,-18.354,-14.39,11.037,1.2868,100743.29
1.2729,-0.0415,-0.3125,-10.671,-7.195,22.378,1.3114,100743.22
1.1758,-0.0229,-0.1201,-7.195,-18.72,26.524,1.1821,100742.29
1.1309,-0.0264,-0.3135,-20.854,-25.793,16.098,1.1738,100741.75
1.2202,-0.1074,-0.0972,11.463,-0.976,3.537,1.2288,100742.55
1.2197,-0.1152,0.3418,19.024,17.622,2.866,1.2719,100742.43
0.9399,-0.1089,0.1543,-27.683,-3.537,0.549,0.9587,100742.32
0.98,-0.1377,-0.2358,-45.122,-19.451,-12.988,1.0173,100741.26
0.916,-0.1597,-0.0991,-10.549,8.598,-6.159,0.9351,100742.18
0.8135,-0.1514,0.1084,-3.171,21.585,-5.122,0.8345,100741.53
0.7969,-0.1216,-0.1323,-26.22,5.366,-7.317,0.8169,100742.16
0.7207,-0.1094,-0.2036,-13.11,4.451,2.927,0.7569,100743.0
0.7246,-0.1113,-0.1074,5.549,14.695,7.317,0.7409,100742.88
0.9082,-0.1396,-0.186,3.537,13.78,2.927,0.9375,100742.79
1.0078,-0.1392,-0.1958,6.341,9.512,2.744,1.036,100742.74
0.9678,-0.123,-0.2852,4.085,3.354,-2.378,1.0164,100742.92
1.0518,-0.1338,-0.3892,13.049,-6.159,-17.439,1.1294,100742.57
1.248,-0.1328,-0.1704,34.329,-3.78,-24.207,1.2666,100743.41
1.1899,-0.1152,-0.0562,24.268,-4.268,-12.012,1.1968,100742.7
1.0718,-0.0718,-0.2153,2.317,-19.268,-12.805,1.0955,100742.52
1.2788,-0.1509,-0.1938,15.549,-26.768,-22.012,1.3022,100743.0
1.2471,-0.147,0.0933,23.293,-18.232,-10.061,1.2592,100743.01
1.1084,-0.0781,-0.1108,-6.22,-34.939,0.854,1.1167,100742.52
0.9468,-0.0615,-0.2192,4.756,-23.415,13.78,0.9738,100743.01
0.7188,-0.0635,0.1494,33.963,7.134,20.488,0.7369,100743.13
0.6929,-0.0537,0.2793,7.317,0.854,8.841,0.749,100743.22
0.7759,-0.0273,-0.1216,-34.512,-12.744,0.671,0.7858,100743.05
0.8096,-0.0054,-0.3262,-20.0,-0.976,9.207,0.8728,100743.03
0.7642,-0.0059,-0.1895,15.671,11.646,19.573,0.7873,100742.52
0.854,-0.043,-0.0972,21.524,14.512,22.439,0.8606,100742.76
0.8711,-0.0649,-0.1201,7.988,15.061,24.146,0.8817,100742.8
0.9487,-0.0732,-0.1826,-8.78,11.646,11.951,0.9689,100743.34
1.3062,-0.1021,-0.166,-19.878,2.256,-1.646,1.3206,100743.63
1.333,-0.0635,-0.2158,-40.305,-9.024,7.5,1.3519,100743.72
1.2378,-0.0845,-0.5684,-49.878,-20.854,8.841,1.3647,100742.91
1.353,-0.1631,-0.3232,-1.585,-3.841,7.622,1.4006,100743.41
1.0303,-0.1528,0.1997,22.378,31.402,18.78,1.0605,100743.67
0.8545,-0.1553,0.3501,-16.829,13.354,0.061,0.9364,100743.27
0.9619,-0.1353,-0.0425,-68.537,-19.329,-20.488,0.9723,100743.06
0.9453,-0.1167,-0.2974,-57.439,-2.439,-15.244,0.9978,100743.17
1.0605,-0.1641,-0.2085,-12.805,21.524,-5.732,1.0932,100742.52
0.9331,-0.1689,-0.0161,10.366,34.329,12.805,0.9484,100742.15
0.605,-0.1221,-0.0703,0.61,33.293,20.061,0.6212,100743.7
0.6406,-0.1045,-0.2041,-6.951,6.524,2.927,0.6804,100742.77
